rep,label,t_us,ax,ay,az,gx,gy,gz,roll,pitch
0,idle,680326849.0,6.163,7.451,-2.456,-2.2,-2.01,-0.06,106.15,-40.85
0,idle,680331849.0,6.124,7.441,-2.442,-2.2,-2.01,0.06,106.18,-40.8
0,idle,680336849.0,6.105,7.479,-2.461,-2.26,-1.95,-0.06,106.21,-40.75
0,idle,680341849.0,6.091,7.484,-2.409,-2.2,-2.26,-0.12,106.23,-40.7
0,idle,680346849.0,6.12,7.503,-2.433,-2.32,-2.38,-0.18,106.26,-40.65
0,idle,680351849.0,6.129,7.499,-2.342,-2.07,-2.5,-0.24,106.27,-40.61
0,idle,680356849.0,6.182,7.518,-2.313,-2.01,-2.56,-0.43,106.27,-40.58
0,idle,680361849.0,6.139,7.537,-2.342,-1.95,-3.05,-0.12,106.28,-40.54
0,idle,680366849.0,6.167,7.532,-2.332,-2.01,-2.99,0.24,106.29,-40.5
0,idle,680371849.0,6.191,7.537,-2.27,-2.32,-2.8,0.61,106.29,-40.47
0,idle,680376849.0,6.22,7.547,-2.246,-2.26,-2.74,0.91,106.29,-40.44
0,idle,680381849.0,6.225,7.532,-2.212,-2.44,-2.74,0.91,106.28,-40.41
0,idle,680386849.0,6.187,7.518,-2.227,-2.56,-2.93,1.1,106.27,-40.38
0,idle,680391849.0,6.182,7.499,-2.241,-2.62,-2.87,1.28,106.26,-40.36
0,idle,680396849.0,6.177,7.508,-2.227,-2.74,-2.5,1.71,106.25,-40.33
0,idle,680401849.0,6.22,7.547,-2.207,-2.8,-2.38,2.01,106.24,-40.3
0,idle,680406849.0,6.287,7.537,-2.294,-2.99,-2.2,2.26,106.24,-40.28
0,idle,680411849.0,6.345,7.527,-2.217,-3.11,-1.89,2.13,106.23,-40.26
0,idle,680416849.0,6.316,7.518,-2.203,-3.23,-1.52,2.44,106.21,-40.24
0,idle,680421849.0,6.359,7.508,-2.217,-3.17,-0.91,2.68,106.2,-40.22
0,idle,680426849.0,6.397,7.513,-2.251,-3.17,-0.43,2.99,106.2,-40.2
0,idle,680431849.0,6.431,7.508,-2.217,-3.17,0.37,3.17,106.19,-40.18
0,idle,680436849.0,6.421,7.503,-2.227,-2.99,0.73,3.29,106.18,-40.16
0,idle,680441849.0,6.431,7.484,-2.246,-2.93,1.1,3.29,106.18,-40.14
0,idle,680446849.0,6.407,7.494,-2.231,-2.56,1.46,3.05,106.17,-40.12
0,idle,680451849.0,6.416,7.499,-2.236,-2.56,1.59,3.17,106.17,-40.1
0,idle,680456849.0,6.421,7.537,-2.265,-2.38,1.59,3.23,106.17,-40.07
0,idle,680461849.0,6.436,7.551,-2.246,-2.2,1.59,3.11,106.16,-40.05
0,idle,680466849.0,6.44,7.556,-2.289,-1.89,1.46,3.11,106.17,-40.02
0,idle,680471849.0,6.436,7.566,-2.284,-1.71,1.4,2.8,106.17,-40.0
0,idle,680476849.0,6.445,7.575,-2.284,-1.46,1.28,2.68,106.18,-39.98
0,idle,680481849.0,6.426,7.58,-2.327,-1.1,1.04,2.62,106.19,-39.95
0,idle,680486849.0,6.412,7.609,-2.332,-1.04,0.61,2.5,106.2,-39.93
0,idle,680491849.0,6.426,7.633,-2.351,-0.79,0.24,2.44,106.22,-39.9
0,idle,680496849.0,6.426,7.618,-2.356,-0.73,0.18,2.2,106.23,-39.88
0,idle,680501849.0,6.45,7.661,-2.385,-0.55,-0.18,1.95,106.25,-39.86
0,idle,680506849.0,6.479,7.666,-2.342,-0.43,-0.49,1.52,106.26,-39.85
0,idle,680511849.0,6.46,7.666,-2.365,-0.37,-0.67,1.46,106.28,-39.83
0,idle,680516849.0,6.493,7.676,-2.37,-0.43,-0.67,1.22,106.29,-39.81
0,idle,680521849.0,6.498,7.685,-2.308,-0.49,-0.67,1.22,106.3,-39.8
0,idle,680526849.0,6.488,7.69,-2.361,-0.43,-0.3,1.1,106.31,-39.78
0,idle,680531849.0,6.488,7.666,-2.279,-0.61,-0.3,0.91,106.32,-39.77
0,idle,680536849.0,6.522,7.69,-2.342,-0.49,-0.3,0.49,106.33,-39.76
0,idle,680541849.0,6.498,7.676,-2.389,-0.43,-0.06,0.3,106.34,-39.74
0,idle,680546849.0,6.46,7.652,-2.322,-0.49,-0.18,0.3,106.35,-39.73
0,idle,680551849.0,6.469,7.647,-2.327,-0.55,-0.18,0.06,106.36,-39.71
0,idle,680556849.0,6.445,7.638,-2.298,-0.49,-0.24,0.0,106.37,-39.7
0,idle,680561849.0,6.45,7.623,-2.279,-0.3,-0.24,-0.12,106.37,-39.69
0,idle,680566849.0,6.421,7.642,-2.289,-0.37,-0.3,-0.24,106.37,-39.67
0,idle,680571849.0,6.393,7.638,-2.289,-0.18,-0.43,-0.43,106.38,-39.65
0,idle,680576849.0,6.393,7.594,-2.284,-0.12,-0.18,-0.43,106.39,-39.64
0,idle,680581849.0,6.426,7.57,-2.217,-0.18,-0.18,-0.73,106.38,-39.63
0,idle,680586849.0,6.421,7.599,-2.236,-0.18,-0.3,-0.91,106.38,-39.62
0,idle,680591849.0,6.402,7.575,-2.217,-0.24,-0.37,-0.91,106.38,-39.61
0,idle,680596849.0,6.412,7.566,-2.279,-0.18,-0.24,-1.04,106.39,-39.6
0,idle,680601849.0,6.421,7.547,-2.294,-0.12,-0.18,-1.04,106.4,-39.59
0,idle,680606849.0,6.388,7.527,-2.289,-0.18,0.0,-0.91,106.41,-39.58
0,idle,680611849.0,6.431,7.503,-2.231,-0.3,0.06,-1.04,106.41,-39.58
0,idle,680616849.0,6.388,7.465,-2.255,-0.24,0.12,-1.1,106.41,-39.57
0,idle,680621849.0,6.321,7.499,-2.251,-0.12,0.24,-0.85,106.42,-39.56
0,idle,680626849.0,6.349,7.475,-2.294,-0.12,0.12,-0.79,106.43,-39.55
0,idle,680631849.0,6.292,7.456,-2.322,-0.12,0.0,-0.73,106.45,-39.53
0,idle,680636849.0,6.297,7.46,-2.365,-0.18,-0.24,-0.61,106.47,-39.52
0,idle,680641849.0,6.316,7.479,-2.38,-0.43,-0.24,-0.73,106.49,-39.51
0,idle,680646849.0,6.359,7.465,-2.38,-0.37,-0.37,-0.91,106.51,-39.5
0,idle,680651849.0,6.33,7.46,-2.385,-0.37,-0.37,-0.73,106.54,-39.49
0,idle,680656849.0,6.354,7.46,-2.361,-0.43,-0.37,-0.67,106.56,-39.49
0,idle,680661849.0,6.335,7.432,-2.413,-0.55,-0.37,-0.55,106.58,-39.48
0,idle,680666849.0,6.335,7.436,-2.356,-0.67,-0.18,-0.55,106.6,-39.47
0,idle,680671849.0,6.345,7.412,-2.37,-0.73,-0.3,-0.43,106.62,-39.47
0,idle,680676849.0,6.345,7.365,-2.361,-0.85,-0.37,-0.49,106.64,-39.47
0,idle,680681849.0,6.316,7.365,-2.389,-0.85,-0.37,-0.49,106.66,-39.46
0,idle,680686849.0,6.33,7.35,-2.356,-0.61,-0.18,-0.55,106.68,-39.46
0,idle,680691849.0,6.321,7.355,-2.389,-0.73,-0.12,-0.18,106.7,-39.46
0,idle,680696849.0,6.33,7.412,-2.409,-0.67,-0.18,-0.24,106.72,-39.45
0,idle,680701849.0,6.34,7.398,-2.342,-0.67,-0.12,-0.37,106.74,-39.45
0,idle,680706849.0,6.335,7.417,-2.365,-0.67,0.18,-0.49,106.75,-39.44
0,idle,680711849.0,6.297,7.432,-2.289,-0.61,0.06,-0.43,106.76,-39.43
0,idle,680716849.0,6.292,7.417,-2.342,-0.79,0.0,-0.18,106.77,-39.42
0,idle,680721849.0,6.325,7.451,-2.303,-0.85,-0.12,-0.18,106.77,-39.42
0,idle,680726849.0,6.369,7.47,-2.313,-0.91,-0.24,-0.12,106.78,-39.41
0,idle,680731849.0,6.378,7.451,-2.251,-0.98,-0.43,-0.12,106.77,-39.41
0,idle,680736849.0,6.364,7.489,-2.217,-0.91,-0.37,0.0,106.76,-39.41
0,idle,680741849.0,6.369,7.508,-2.246,-0.98,-0.3,0.12,106.76,-39.41
0,idle,680746849.0,6.393,7.523,-2.231,-0.98,-0.24,0.24,106.75,-39.4
0,idle,680751849.0,6.455,7.513,-2.327,-0.85,-0.12,0.3,106.75,-39.4
0,idle,680756849.0,6.464,7.523,-2.222,-0.91,-0.12,0.37,106.74,-39.4
0,idle,680761849.0,6.474,7.523,-2.279,-0.98,0.0,0.37,106.74,-39.41
0,idle,680766849.0,6.483,7.532,-2.289,-0.79,0.18,0.61,106.74,-39.41
0,idle,680771849.0,6.493,7.547,-2.289,-0.73,0.3,0.49,106.74,-39.41
0,idle,680776849.0,6.498,7.508,-2.313,-0.67,0.79,0.61,106.74,-39.41
0,idle,680781849.0,6.536,7.494,-2.298,-0.61,0.91,0.49,106.74,-39.41
0,idle,680786849.0,6.488,7.513,-2.313,-0.49,1.04,0.55,106.75,-39.41
0,idle,680791849.0,6.503,7.508,-2.332,-0.43,1.52,0.49,106.76,-39.4
0,idle,680796849.0,6.498,7.499,-2.322,-0.55,1.59,0.67,106.76,-39.4
0,idle,680801849.0,6.469,7.494,-2.413,-0.49,1.77,0.49,106.78,-39.39
0,idle,680806849.0,6.44,7.479,-2.38,-0.43,1.71,0.49,106.8,-39.38
0,idle,680811849.0,6.445,7.46,-2.37,-0.43,1.77,0.3,106.81,-39.38
0,idle,680816849.0,6.412,7.489,-2.38,-0.37,1.71,0.24,106.83,-39.36
0,idle,680821849.0,6.412,7.503,-2.375,-0.24,1.46,-0.24,106.84,-39.35
0,idle,680826849.0,6.388,7.523,-2.442,-0.18,1.34,-0.12,106.86,-39.34
0,idle,680831849.0,6.364,7.499,-2.418,-0.24,1.28,-0.12,106.88,-39.32
0,idle,680836849.0,6.354,7.523,-2.476,-0.3,1.1,-0.3,106.91,-39.31
0,idle,680841849.0,6.364,7.527,-2.447,-0.06,1.04,-0.55,106.93,-39.29
0,idle,680846849.0,6.325,7.523,-2.461,-0.18,0.67,-0.61,106.95,-39.27
0,idle,680851849.0,6.311,7.513,-2.375,-0.12,0.49,-0.85,106.96,-39.26
0,idle,680856849.0,6.306,7.527,-2.413,0.0,0.06,-0.79,106.98,-39.25
0,idle,680861849.0,6.282,7.537,-2.356,0.0,0.06,-0.79,106.99,-39.23
0,idle,680866849.0,6.34,7.547,-2.461,0.0,-0.12,-0.61,107.01,-39.22
0,idle,680871849.0,6.306,7.556,-2.428,-0.12,-0.37,-0.49,107.02,-39.21
0,idle,680876849.0,6.311,7.551,-2.409,-0.12,-0.37,-0.61,107.04,-39.19
0,idle,680881849.0,6.33,7.537,-2.418,-0.18,-0.61,-0.79,107.05,-39.19
0,idle,680886849.0,6.321,7.604,-2.423,-0.3,-0.85,-0.67,107.06,-39.17
0,idle,680891849.0,6.349,7.561,-2.375,-0.43,-1.1,-0.73,107.07,-39.17
0,idle,680896849.0,6.354,7.551,-2.37,-0.49,-1.34,-0.61,107.07,-39.17
0,idle,680901849.0,6.345,7.537,-2.361,-0.37,-1.4,-0.67,107.08,-39.17
0,idle,680906849.0,6.349,7.484,-2.365,-0.43,-1.65,-0.67,107.08,-39.17
0,idle,680911849.0,6.364,7.523,-2.37,-0.79,-1.77,-0.73,107.09,-39.18
0,idle,680916849.0,6.421,7.513,-2.346,-0.91,-1.95,-0.79,107.09,-39.19
0,idle,680921849.0,6.45,7.465,-2.361,-0.98,-2.07,-0.91,107.09,-39.2
0,idle,680926849.0,6.445,7.46,-2.327,-0.98,-2.38,-1.1,107.09,-39.22
0,idle,680931849.0,6.455,7.465,-2.351,-0.98,-2.26,-1.1,107.1,-39.24
0,idle,680936849.0,6.421,7.451,-2.385,-1.22,-2.07,-0.98,107.1,-39.25
0,idle,680941849.0,6.455,7.46,-2.327,-1.16,-1.95,-1.1,107.1,-39.27
0,idle,680946849.0,6.464,7.451,-2.361,-0.98,-1.77,-0.98,107.11,-39.28
0,idle,680951849.0,6.455,7.503,-2.332,-1.22,-1.59,-1.1,107.1,-39.29
0,idle,680956849.0,6.45,7.508,-2.308,-1.28,-1.22,-1.1,107.1,-39.3
0,idle,680961849.0,6.402,7.547,-2.346,-1.16,-0.98,-0.79,107.09,-39.3
0,idle,680966849.0,6.369,7.537,-2.294,-1.28,-0.55,-0.73,107.08,-39.29
0,idle,680971849.0,6.359,7.513,-2.327,-1.4,-0.43,-0.67,107.08,-39.29
0,idle,680976849.0,6.354,7.513,-2.274,-1.59,-0.12,-0.67,107.07,-39.28
0,idle,680981849.0,6.316,7.499,-2.332,-1.65,0.12,-0.43,107.06,-39.27
0,idle,680986849.0,6.287,7.499,-2.308,-1.65,-0.12,-0.49,107.06,-39.26
0,idle,680991849.0,6.287,7.494,-2.303,-1.59,0.06,-0.18,107.05,-39.25
0,idle,680996849.0,6.263,7.479,-2.356,-1.59,-0.12,0.12,107.05,-39.24
0,idle,681001849.0,6.244,7.47,-2.361,-1.52,-0.12,0.43,107.05,-39.23
0,idle,681006849.0,6.258,7.412,-2.327,-1.59,-0.18,0.12,107.05,-39.22
0,idle,681011849.0,6.249,7.427,-2.365,-1.46,-0.37,0.18,107.06,-39.21
0,idle,681016849.0,6.263,7.446,-2.337,-1.4,-0.55,0.24,107.06,-39.21
0,idle,681021849.0,6.263,7.441,-2.418,-1.4,-0.49,0.43,107.07,-39.2
0,idle,681026850.0,6.297,7.475,-2.413,-1.52,-0.55,0.3,107.08,-39.19
0,idle,681031850.0,6.306,7.484,-2.428,-1.34,-0.49,0.37,107.09,-39.18
0,idle,681036850.0,6.321,7.46,-2.409,-1.34,-0.61,0.18,107.1,-39.18
0,idle,681041850.0,6.345,7.508,-2.456,-1.46,-0.61,0.24,107.11,-39.17
0,idle,681046850.0,6.335,7.508,-2.423,-1.46,-0.49,0.18,107.12,-39.17
0,idle,681051850.0,6.345,7.527,-2.442,-1.65,-0.43,0.18,107.13,-39.16
0,idle,681056850.0,6.359,7.551,-2.442,-1.59,-0.24,0.24,107.14,-39.15
0,idle,681061850.0,6.321,7.532,-2.399,-1.59,0.0,0.37,107.14,-39.14
0,idle,681066850.0,6.33,7.585,-2.447,-1.52,0.24,0.55,107.15,-39.13
0,idle,681071850.0,6.278,7.585,-2.423,-1.71,0.55,0.61,107.15,-39.11
0,idle,681076850.0,6.287,7.561,-2.399,-1.71,0.91,0.79,107.15,-39.09
0,idle,681081850.0,6.282,7.604,-2.404,-1.65,1.1,1.1,107.15,-39.07
0,idle,681086850.0,6.273,7.594,-2.389,-1.71,1.28,1.16,107.15,-39.04
0,idle,681091850.0,6.273,7.566,-2.418,-1.95,1.34,1.1,107.15,-39.02
0,idle,681096850.0,6.263,7.59,-2.346,-2.07,1.04,0.98,107.14,-39.0
0,idle,681101850.0,6.211,7.556,-2.351,-2.07,0.61,1.04,107.13,-38.98
0,idle,681106850.0,6.215,7.508,-2.375,-2.13,0.3,1.1,107.13,-38.97
0,idle,681111851.0,6.211,7.523,-2.37,-2.07,-0.12,1.22,107.13,-38.95
0,idle,681116851.0,6.258,7.484,-2.389,-2.26,-0.55,1.16,107.13,-38.95
0,idle,681121851.0,6.258,7.489,-2.346,-1.95,-1.04,0.85,107.13,-38.94
0,idle,681126851.0,6.302,7.475,-2.389,-2.13,-1.34,0.49,107.13,-38.95
0,idle,681131851.0,6.335,7.499,-2.356,-1.95,-1.77,0.37,107.12,-38.95
0,idle,681136851.0,6.383,7.537,-2.332,-2.01,-1.89,0.24,107.12,-38.96
0,idle,681141851.0,6.402,7.547,-2.356,-2.32,-2.01,0.24,107.11,-38.97
0,idle,681146851.0,6.412,7.503,-2.428,-2.38,-1.77,0.3,107.11,-38.99
0,idle,681151851.0,6.493,7.542,-2.361,-2.38,-1.28,0.18,107.11,-39.0
0,idle,681156851.0,6.488,7.556,-2.337,-2.26,-0.73,0.12,107.1,-39.01
0,idle,681161851.0,6.483,7.537,-2.298,-2.44,-0.18,0.06,107.08,-39.02
0,idle,681166852.0,6.479,7.537,-2.318,-2.32,0.3,0.24,107.07,-39.03
0,idle,681171852.0,6.436,7.542,-2.356,-2.44,0.73,0.37,107.07,-39.03
0,idle,681176853.0,6.431,7.508,-2.332,-2.38,0.85,0.61,107.06,-39.03
0,idle,681181853.0,6.402,7.503,-2.37,-2.38,1.22,0.79,107.06,-39.02
0,idle,681186853.0,6.359,7.47,-2.313,-2.38,1.34,0.91,107.05,-39.02
0,idle,681191853.0,6.321,7.446,-2.356,-2.13,1.28,0.79,107.05,-39.01
0,idle,681196854.0,6.297,7.465,-2.294,-2.01,1.04,0.49,107.04,-39.0
0,idle,681201854.0,6.297,7.465,-2.332,-2.01,0.73,0.49,107.03,-39.0
0,idle,681206854.0,6.297,7.484,-2.385,-1.77,0.55,0.37,107.04,-38.99
0,idle,681211854.0,6.278,7.475,-2.389,-1.77,0.06,0.3,107.04,-38.98
0,idle,681216854.0,6.302,7.508,-2.389,-1.71,-0.37,0.24,107.05,-38.98
0,idle,681221854.0,6.297,7.566,-2.375,-1.52,-0.37,0.18,107.05,-38.97
0,idle,681226854.0,6.34,7.556,-2.418,-1.71,-0.43,0.12,107.05,-38.96
0,idle,681231854.0,6.345,7.556,-2.37,-1.89,-0.43,0.0,107.05,-38.96
0,idle,681236854.0,6.369,7.609,-2.375,-1.89,-0.37,-0.12,107.05,-38.96
0,idle,681241854.0,6.402,7.542,-2.351,-2.01,-0.3,0.24,107.04,-38.96
0,idle,681246854.0,6.388,7.57,-2.389,-1.95,0.12,0.43,107.04,-38.96
0,idle,681251854.0,6.345,7.575,-2.404,-1.95,0.49,0.49,107.04,-38.95
0,idle,681256854.0,6.34,7.58,-2.394,-2.13,0.91,0.73,107.04,-38.93
0,idle,681261854.0,6.311,7.561,-2.394,-2.07,1.22,0.61,107.04,-38.92
0,idle,681266855.0,6.287,7.556,-2.399,-1.95,1.4,0.91,107.05,-38.9
0,idle,681271856.0,6.249,7.561,-2.356,-1.95,1.52,0.79,107.04,-38.88
0,idle,681276856.0,6.244,7.57,-2.38,-1.83,1.59,0.79,107.04,-38.86
0,idle,681281856.0,6.23,7.537,-2.351,-1.83,1.34,0.79,107.04,-38.84
0,idle,681286857.0,6.225,7.489,-2.375,-1.77,1.1,0.67,107.04,-38.83
0,idle,681291857.0,6.211,7.508,-2.365,-1.77,0.79,0.49,107.04,-38.81
0,idle,681296857.0,6.215,7.499,-2.385,-1.59,0.55,0.67,107.04,-38.8
0,idle,681301857.0,6.215,7.513,-2.308,-1.65,0.55,0.55,107.04,-38.79
0,idle,681306858.0,6.282,7.532,-2.318,-1.52,0.3,0.67,107.03,-38.78
0,idle,681311858.0,6.278,7.547,-2.385,-1.65,0.24,0.37,107.03,-38.77
0,idle,681316858.0,6.282,7.57,-2.385,-1.46,0.06,0.18,107.03,-38.77
0,idle,681321858.0,6.311,7.585,-2.322,-1.52,-0.18,0.0,107.03,-38.76
0,idle,681326858.0,6.335,7.628,-2.365,-1.65,-0.24,0.12,107.02,-38.76
0,idle,681331858.0,6.383,7.633,-2.418,-1.71,-0.3,0.12,107.03,-38.75
0,idle,681336858.0,6.359,7.599,-2.389,-1.71,0.06,0.24,107.03,-38.75
0,idle,681341858.0,6.373,7.618,-2.308,-2.07,0.3,0.18,107.01,-38.75
0,idle,681346858.0,6.378,7.609,-2.332,-1.95,0.73,0.24,107.0,-38.74
0,idle,681351858.0,6.373,7.599,-2.337,-2.07,1.16,0.12,106.99,-38.74
0,idle,681356859.0,6.364,7.575,-2.318,-2.07,1.4,0.43,106.98,-38.73
0,idle,681361859.0,6.359,7.556,-2.289,-1.95,1.46,0.12,106.97,-38.73
1,idle,684676877.0,6.737,6.948,-2.763,-5.55,-1.1,-4.63,110.03,-42.73
1,idle,684681878.0,6.771,6.953,-2.739,-5.79,-1.04,-4.51,110.03,-42.72
1,idle,684686878.0,6.804,6.943,-2.705,-6.04,-1.1,-4.51,110.03,-42.72
1,idle,684691878.0,6.819,6.934,-2.638,-6.34,-0.98,-4.45,110.01,-42.72
1,idle,684696879.0,6.857,6.919,-2.586,-6.46,-0.79,-4.21,109.99,-42.73
1,idle,684701879.0,6.857,6.895,-2.543,-6.46,-0.49,-3.96,109.97,-42.74
1,idle,684706879.0,6.867,6.852,-2.504,-6.52,-0.18,-4.02,109.94,-42.75
1,idle,684711879.0,6.891,6.862,-2.5,-6.52,0.18,-3.6,109.91,-42.76
1,idle,684716879.0,6.914,6.838,-2.428,-6.4,0.79,-3.29,109.87,-42.77
1,idle,684721879.0,6.919,6.852,-2.437,-6.28,1.1,-3.48,109.83,-42.78
1,idle,684726879.0,6.9,6.79,-2.394,-6.04,1.52,-3.23,109.79,-42.79
1,idle,684731879.0,6.91,6.819,-2.38,-5.73,1.83,-2.99,109.75,-42.8
1,idle,684736879.0,6.91,6.823,-2.361,-5.55,2.13,-2.74,109.71,-42.81
1,idle,684741879.0,6.9,6.79,-2.365,-5.3,2.26,-2.2,109.68,-42.82
1,idle,684746879.0,6.91,6.823,-2.389,-4.82,2.32,-1.95,109.65,-42.83
1,idle,684751879.0,6.871,6.828,-2.394,-4.57,2.5,-1.59,109.62,-42.83
1,idle,684756879.0,6.857,6.819,-2.423,-4.27,2.56,-1.59,109.59,-42.83
1,idle,684761879.0,6.871,6.857,-2.485,-3.84,2.56,-1.1,109.58,-42.83
1,idle,684766879.0,6.867,6.852,-2.442,-3.41,2.68,-0.79,109.57,-42.82
1,idle,684771879.0,6.876,6.867,-2.476,-3.23,2.62,-0.43,109.56,-42.82
1,idle,684776879.0,6.9,6.919,-2.504,-2.87,2.74,0.0,109.55,-42.81
1,idle,684781879.0,6.905,6.929,-2.519,-2.62,2.8,0.37,109.54,-42.81
1,idle,684786880.0,6.862,6.943,-2.471,-2.44,2.8,0.61,109.53,-42.8
1,idle,684791880.0,6.857,6.977,-2.504,-2.07,2.74,1.04,109.53,-42.78
1,idle,684796881.0,6.852,7.034,-2.466,-1.95,2.87,1.28,109.51,-42.76
1,idle,684801881.0,6.809,7.039,-2.452,-1.71,2.93,1.83,109.5,-42.74
1,idle,684806881.0,6.809,7.092,-2.504,-1.65,2.93,2.13,109.49,-42.72
1,idle,684811881.0,6.819,7.106,-2.476,-1.46,2.87,2.32,109.48,-42.69
1,idle,684816881.0,6.833,7.168,-2.466,-1.28,2.74,2.44,109.46,-42.66
1,idle,684821882.0,6.857,7.23,-2.476,-1.1,2.5,2.5,109.44,-42.64
1,idle,684826882.0,6.862,7.226,-2.471,-0.91,2.2,2.62,109.43,-42.61
1,idle,684831882.0,6.828,7.274,-2.447,-0.91,2.01,2.68,109.41,-42.58
1,idle,684836882.0,6.828,7.278,-2.476,-0.61,1.71,2.93,109.39,-42.56
1,idle,684841882.0,6.862,7.298,-2.471,-0.49,1.52,2.99,109.38,-42.53
1,idle,684846882.0,6.895,7.278,-2.394,-0.18,1.16,2.99,109.35,-42.51
1,idle,684851882.0,6.871,7.259,-2.433,0.12,0.55,2.87,109.34,-42.5
1,idle,684856882.0,6.876,7.264,-2.428,0.12,0.12,2.44,109.32,-42.49
1,idle,684861882.0,6.847,7.25,-2.394,0.43,-0.67,2.13,109.3,-42.48
1,idle,684866882.0,6.823,7.269,-2.428,0.43,-1.22,2.01,109.29,-42.47
1,idle,684871882.0,6.847,7.283,-2.413,0.55,-1.83,1.77,109.27,-42.46
1,idle,684876882.0,6.847,7.293,-2.418,0.55,-2.07,1.22,109.25,-42.46
1,idle,684881882.0,6.838,7.317,-2.413,0.67,-2.56,0.85,109.24,-42.45
1,idle,684886882.0,6.871,7.288,-2.37,0.73,-2.93,0.37,109.22,-42.46
1,idle,684891882.0,6.862,7.264,-2.394,0.55,-3.17,-0.12,109.2,-42.46
1,idle,684896882.0,6.881,7.245,-2.389,0.55,-3.29,-0.3,109.18,-42.47
1,idle,684901882.0,6.881,7.235,-2.351,0.3,-3.29,-0.49,109.16,-42.48
1,idle,684906882.0,6.886,7.207,-2.365,0.24,-3.17,-0.79,109.14,-42.49
1,idle,684911882.0,6.905,7.183,-2.385,0.18,-3.05,-1.1,109.13,-42.5
1,idle,684916882.0,6.862,7.187,-2.327,0.12,-2.8,-1.4,109.1,-42.51
1,idle,684921882.0,6.881,7.154,-2.265,0.43,-2.74,-1.4,109.08,-42.52
1,idle,684926882.0,6.847,7.168,-2.251,0.3,-2.38,-1.77,109.04,-42.53
1,idle,684931882.0,6.852,7.13,-2.26,0.12,-2.07,-1.89,109.02,-42.54
1,idle,684936882.0,6.847,7.111,-2.188,0.3,-1.83,-1.89,108.98,-42.55
1,idle,684941882.0,6.857,7.125,-2.227,0.3,-1.4,-2.13,108.95,-42.56
1,idle,684946882.0,6.852,7.111,-2.246,0.55,-1.16,-2.32,108.92,-42.57
1,idle,684951882.0,6.847,7.092,-2.241,0.61,-0.79,-2.32,108.9,-42.57
1,idle,684956882.0,6.833,7.072,-2.26,0.91,-0.3,-2.2,108.88,-42.57
1,idle,684961882.0,6.8,7.053,-2.236,1.16,0.18,-2.07,108.86,-42.57
1,idle,684966882.0,6.795,7.058,-2.212,1.34,0.55,-2.2,108.84,-42.57
1,idle,684971882.0,6.819,7.082,-2.27,1.52,1.1,-2.13,108.82,-42.56
1,idle,684976882.0,6.814,7.044,-2.313,1.65,1.52,-2.26,108.82,-42.56
1,idle,684981882.0,6.78,7.049,-2.332,1.95,2.26,-2.07,108.82,-42.54
1,idle,684986882.0,6.756,7.034,-2.346,2.32,2.44,-1.95,108.82,-42.53
1,idle,684991882.0,6.771,7.049,-2.351,2.56,2.8,-1.95,108.83,-42.51
1,idle,684996882.0,6.732,6.996,-2.37,2.93,2.93,-2.01,108.84,-42.49
1,idle,685001882.0,6.728,7.005,-2.433,3.17,3.17,-1.95,108.86,-42.47
1,idle,685006882.0,6.723,7.044,-2.442,3.54,3.23,-2.01,108.88,-42.45
1,idle,685011882.0,6.713,7.049,-2.433,3.72,3.29,-1.83,108.9,-42.42
1,idle,685016882.0,6.723,7.106,-2.452,4.27,3.48,-1.95,108.93,-42.39
1,idle,685021882.0,6.713,7.092,-2.476,4.09,3.78,-1.77,108.95,-42.36
1,idle,685026882.0,6.742,7.092,-2.514,4.33,3.96,-1.89,108.99,-42.33
1,idle,685031882.0,6.766,7.072,-2.509,4.39,4.02,-2.01,109.02,-42.31
1,idle,685036882.0,6.723,7.092,-2.595,4.57,3.84,-1.89,109.06,-42.27
1,idle,685041882.0,6.761,7.087,-2.538,4.76,3.78,-1.77,109.1,-42.25
1,idle,685046882.0,6.756,7.111,-2.538,4.82,3.84,-1.83,109.13,-42.22
1,idle,685051882.0,6.742,7.106,-2.591,4.88,3.84,-1.83,109.18,-42.19
1,idle,685056882.0,6.723,7.14,-2.547,5.0,3.84,-1.83,109.21,-42.16
1,idle,685061882.0,6.737,7.116,-2.576,5.06,3.6,-2.01,109.25,-42.13
1,idle,685066882.0,6.732,7.111,-2.634,5.12,3.48,-2.13,109.29,-42.11
1,idle,685071882.0,6.728,7.12,-2.61,5.18,3.23,-2.26,109.34,-42.08
1,idle,685076882.0,6.756,7.12,-2.586,5.06,2.87,-2.62,109.37,-42.06
1,idle,685081882.0,6.732,7.111,-2.586,5.18,2.56,-2.56,109.41,-42.04
1,idle,685086882.0,6.742,7.135,-2.605,5.18,2.38,-2.8,109.45,-42.02
1,idle,685091882.0,6.718,7.154,-2.595,4.94,2.38,-2.87,109.48,-41.99
1,idle,685096882.0,6.742,7.12,-2.619,4.88,2.26,-2.87,109.52,-41.98
1,idle,685101882.0,6.752,7.125,-2.523,4.94,2.2,-3.11,109.55,-41.96
1,idle,685106882.0,6.8,7.13,-2.586,5.0,2.2,-3.29,109.58,-41.95
1,idle,685111882.0,6.771,7.13,-2.562,4.63,2.01,-3.41,109.6,-41.94
1,idle,685116882.0,6.78,7.111,-2.581,4.57,2.13,-3.17,109.63,-41.92
1,idle,685121882.0,6.752,7.125,-2.523,4.57,2.07,-2.99,109.65,-41.91
1,idle,685126882.0,6.771,7.092,-2.571,4.45,2.26,-2.93,109.68,-41.9
1,idle,685131882.0,6.78,7.072,-2.523,4.51,2.44,-2.8,109.7,-41.89
1,idle,685136882.0,6.776,7.044,-2.562,4.51,2.68,-2.74,109.73,-41.88
1,idle,685141882.0,6.766,7.044,-2.581,4.45,2.74,-2.5,109.76,-41.87
1,idle,685146882.0,6.78,7.044,-2.557,4.51,2.74,-2.74,109.79,-41.86
1,idle,685151882.0,6.761,7.005,-2.533,4.39,2.38,-2.8,109.81,-41.86
1,idle,685156882.0,6.752,7.005,-2.557,4.27,2.32,-2.68,109.83,-41.85
1,idle,685161882.0,6.732,6.981,-2.523,4.15,2.26,-2.44,109.86,-41.85
1,idle,685166882.0,6.742,6.962,-2.576,4.15,2.32,-2.2,109.88,-41.85
1,idle,685171882.0,6.728,6.962,-2.552,4.21,2.44,-2.2,109.91,-41.84
1,idle,685176882.0,6.732,6.972,-2.614,4.15,2.44,-2.38,109.94,-41.84
1,idle,685181882.0,6.728,6.967,-2.619,3.96,2.38,-2.2,109.98,-41.83
1,idle,685186882.0,6.709,7.005,-2.634,3.96,2.2,-2.07,110.01,-41.82
1,idle,685191882.0,6.685,6.996,-2.6,3.9,2.32,-1.71,110.03,-41.81
1,idle,685196882.0,6.67,7.015,-2.648,3.9,2.38,-1.46,110.07,-41.79
1,idle,685201882.0,6.675,6.977,-2.667,3.96,2.32,-1.1,110.1,-41.78
1,idle,685206882.0,6.637,7.01,-2.6,3.78,2.62,-0.67,110.13,-41.77
1,idle,685211882.0,6.622,7.044,-2.667,3.72,2.74,-0.61,110.16,-41.74
1,idle,685216882.0,6.622,7.068,-2.629,3.72,3.11,-0.37,110.18,-41.72
1,idle,685221882.0,6.603,7.082,-2.61,3.72,3.41,-0.37,110.2,-41.69
1,idle,685226882.0,6.608,7.116,-2.605,3.6,3.48,-0.12,110.22,-41.66
1,idle,685231882.0,6.603,7.087,-2.567,3.35,3.54,0.06,110.23,-41.64
1,idle,685236882.0,6.646,7.111,-2.619,3.41,3.35,-0.06,110.24,-41.61
1,idle,685241882.0,6.675,7.092,-2.614,3.29,3.05,0.0,110.26,-41.59
1,idle,685246882.0,6.68,7.101,-2.638,3.23,3.11,0.0,110.28,-41.58
1,idle,685251882.0,6.689,7.101,-2.662,3.17,2.8,0.12,110.3,-41.56
1,idle,685256882.0,6.742,7.082,-2.595,3.17,2.68,0.18,110.31,-41.55
1,idle,685261882.0,6.747,7.072,-2.715,3.17,2.56,0.12,110.34,-41.54
1,idle,685266882.0,6.814,7.096,-2.648,3.23,2.2,-0.06,110.36,-41.54
1,idle,685271882.0,6.809,7.12,-2.653,3.23,1.95,-0.06,110.37,-41.54
1,idle,685276882.0,6.828,7.135,-2.619,3.35,1.83,-0.18,110.39,-41.53
1,idle,685281882.0,6.838,7.111,-2.591,3.23,1.77,-0.18,110.4,-41.54
1,idle,685286882.0,6.876,7.125,-2.634,3.41,1.83,0.06,110.41,-41.54
1,idle,685291882.0,6.9,7.101,-2.619,3.29,1.89,-0.12,110.42,-41.55
1,idle,685296882.0,6.905,7.116,-2.638,3.23,1.95,-0.18,110.44,-41.55
1,idle,685301882.0,6.9,7.106,-2.691,3.17,2.07,-0.18,110.46,-41.56
1,idle,685306882.0,6.847,7.116,-2.667,3.11,2.26,-0.06,110.48,-41.55
1,idle,685311882.0,6.843,7.072,-2.686,3.11,2.38,-0.24,110.5,-41.55
1,idle,685316882.0,6.867,7.072,-2.643,3.05,2.56,-0.18,110.51,-41.56
1,idle,685321882.0,6.847,7.063,-2.667,3.05,2.5,-0.43,110.53,-41.56
1,idle,685326882.0,6.785,7.068,-2.691,3.11,2.44,-0.43,110.55,-41.55
1,idle,685331882.0,6.809,7.087,-2.725,3.11,2.56,-0.61,110.58,-41.55
1,idle,685336882.0,6.78,7.072,-2.624,3.05,2.56,-0.73,110.59,-41.54
1,idle,685341882.0,6.79,7.092,-2.677,3.23,2.8,-0.49,110.61,-41.53
1,idle,685346882.0,6.766,7.077,-2.643,3.23,2.87,-0.61,110.62,-41.53
1,idle,685351882.0,6.742,7.092,-2.662,3.17,2.68,-0.67,110.63,-41.52
1,idle,685356882.0,6.752,7.072,-2.667,3.05,2.99,-0.67,110.65,-41.51
1,idle,685361882.0,6.742,7.111,-2.624,3.23,3.23,-0.73,110.66,-41.49
1,idle,685366882.0,6.761,7.116,-2.667,3.11,3.23,-0.79,110.67,-41.48
1,idle,685371882.0,6.761,7.12,-2.619,3.23,3.41,-0.98,110.68,-41.47
1,idle,685376882.0,6.756,7.12,-2.658,3.35,3.48,-0.85,110.69,-41.46
1,idle,685381882.0,6.795,7.092,-2.686,3.11,3.41,-0.85,110.7,-41.45
1,idle,685386882.0,6.756,7.111,-2.658,3.17,3.6,-0.67,110.72,-41.43
1,idle,685391882.0,6.761,7.116,-2.72,3.11,3.66,-0.55,110.74,-41.42
1,idle,685396882.0,6.785,7.116,-2.629,3.11,3.6,-0.61,110.74,-41.41
1,idle,685401882.0,6.78,7.125,-2.658,3.17,3.6,-0.61,110.75,-41.4
1,idle,685406882.0,6.795,7.116,-2.61,3.23,3.48,-0.79,110.75,-41.39
1,idle,685411882.0,6.795,7.072,-2.701,3.23,3.23,-0.85,110.77,-41.38
1,idle,685416882.0,6.809,7.125,-2.662,3.17,2.87,-0.91,110.78,-41.38
1,idle,685421882.0,6.819,7.087,-2.677,2.99,2.74,-0.91,110.8,-41.38
1,idle,685426882.0,6.857,7.068,-2.624,2.93,2.5,-0.85,110.8,-41.38
1,idle,685431882.0,6.876,7.068,-2.6,2.74,2.44,-0.91,110.8,-41.39
1,idle,685436882.0,6.847,7.092,-2.648,2.68,2.62,-0.73,110.81,-41.39
1,idle,685441882.0,6.785,7.101,-2.638,2.68,2.5,-0.61,110.81,-41.39
1,idle,685446882.0,6.785,7.068,-2.648,2.44,2.68,-0.55,110.82,-41.39
1,idle,685451882.0,6.766,7.058,-2.677,2.38,2.93,-0.73,110.83,-41.38
1,idle,685456882.0,6.752,7.034,-2.638,2.38,2.93,-0.73,110.84,-41.38
1,idle,685461882.0,6.747,7.039,-2.638,2.13,2.99,-0.79,110.84,-41.38
1,idle,685466882.0,6.718,7.082,-2.614,2.2,2.99,-0.85,110.84,-41.37
1,idle,685471882.0,6.699,7.068,-2.638,2.13,2.93,-0.98,110.84,-41.36
1,idle,685476882.0,6.665,7.106,-2.643,1.95,3.29,-0.91,110.85,-41.34
1,idle,685481882.0,6.665,7.12,-2.696,1.71,3.29,-0.67,110.85,-41.32
1,idle,685486882.0,6.67,7.125,-2.734,1.59,3.23,-0.67,110.86,-41.3
1,idle,685491882.0,6.665,7.087,-2.729,1.4,3.17,-0.55,110.87,-41.29
1,idle,685496882.0,6.665,7.044,-2.749,1.16,2.74,-0.79,110.89,-41.28
1,idle,685501882.0,6.685,6.991,-2.777,0.91,2.26,-0.61,110.91,-41.27
1,idle,685506882.0,6.646,6.886,-2.792,0.79,1.71,-0.67,110.93,-41.28
1,idle,685511882.0,6.637,6.838,-2.806,0.61,1.22,-0.55,110.97,-41.28
1,idle,685516882.0,6.646,6.785,-2.82,0.61,0.55,-0.73,111.0,-41.3
1,idle,685521882.0,6.665,6.776,-2.739,0.55,0.43,-0.91,111.02,-41.32
1,idle,685526882.0,6.665,6.776,-2.772,0.3,0.18,-1.1,111.05,-41.33
1,idle,685531882.0,6.685,6.823,-2.801,0.18,0.18,-1.16,111.08,-41.35
1,idle,685536882.0,6.642,6.823,-2.787,-0.06,0.24,-0.98,111.1,-41.36
1,idle,685541882.0,6.622,6.871,-2.796,-0.49,0.24,-1.04,111.12,-41.37
1,idle,685546882.0,6.598,6.857,-2.777,-0.91,0.67,-0.73,111.13,-41.37
1,idle,685551882.0,6.574,6.857,-2.763,-1.4,1.04,-0.67,111.14,-41.37
1,idle,685556882.0,6.56,6.823,-2.768,-1.95,1.22,-0.37,111.15,-41.37
1,idle,685561882.0,6.507,6.814,-2.801,-2.2,1.77,-0.18,111.16,-41.37
1,idle,685566882.0,6.479,6.795,-2.744,-2.74,2.07,0.12,111.17,-41.36
1,idle,685571882.0,6.464,6.795,-2.753,-3.05,2.93,0.43,111.17,-41.35
1,idle,685576882.0,6.46,6.828,-2.734,-3.48,3.6,0.61,111.16,-41.33
1,idle,685581882.0,6.503,6.862,-2.705,-3.72,4.33,0.98,111.15,-41.31
1,idle,685586882.0,6.527,6.857,-2.71,-3.78,5.24,1.34,111.14,-41.29
1,idle,685591882.0,6.551,6.91,-2.749,-4.15,6.1,1.59,111.13,-41.26
1,idle,685596882.0,6.598,6.914,-2.672,-4.51,7.01,2.01,111.11,-41.23
1,idle,685601882.0,6.613,6.972,-2.691,-4.63,7.93,2.32,111.09,-41.2
1,idle,685606882.0,6.603,6.977,-2.729,-4.88,8.96,2.8,111.07,-41.16
1,idle,685611883.0,6.608,7.005,-2.729,-5.24,9.94,3.29,111.05,-41.11
1,idle,685616883.0,6.57,7.01,-2.768,-5.43,10.98,3.78,111.03,-41.06
1,idle,685621883.0,6.546,7.025,-2.701,-5.49,11.65,4.27,111.01,-41.0
1,idle,685626883.0,6.56,7.034,-2.643,-5.43,12.62,4.7,110.97,-40.94
1,idle,685631883.0,6.541,7.116,-2.696,-5.49,13.35,4.82,110.94,-40.87
1,idle,685636883.0,6.579,7.202,-2.682,-5.3,13.84,5.06,110.9,-40.8
1,idle,685641883.0,6.627,7.216,-2.658,-5.3,14.21,5.12,110.86,-40.73
1,idle,685646883.0,6.642,7.293,-2.658,-5.24,14.76,5.37,110.82,-40.65
1,idle,685651883.0,6.699,7.374,-2.662,-5.3,15.24,5.49,110.78,-40.57
1,idle,685656883.0,6.728,7.408,-2.6,-5.12,15.98,5.67,110.72,-40.5
1,idle,685661883.0,6.747,7.432,-2.595,-5.18,16.65,5.91,110.67,-40.42
1,idle,685666883.0,6.838,7.456,-2.557,-4.82,17.2,6.16,110.61,-40.34
1,idle,685671883.0,6.838,7.513,-2.552,-4.45,17.68,6.28,110.55,-40.26
1,idle,685676883.0,6.814,7.561,-2.547,-4.15,17.8,6.28,110.49,-40.18
1,idle,685681883.0,6.795,7.599,-2.509,-3.9,17.44,6.4,110.43,-40.1
1,idle,685686883.0,6.828,7.628,-2.557,-3.72,17.01,6.4,110.37,-40.02
1,idle,685691883.0,6.819,7.623,-2.567,-3.17,16.16,6.71,110.32,-39.95
1,idle,685696883.0,6.833,7.58,-2.485,-2.93,14.94,6.65,110.26,-39.89
1,idle,685701883.0,6.838,7.561,-2.485,-2.32,13.96,6.65,110.21,-39.83
1,idle,685706883.0,6.847,7.551,-2.519,-1.83,13.17,6.28,110.17,-39.79
1,idle,685711883.0,6.895,7.57,-2.514,-1.34,12.07,5.91,110.12,-39.75
1,idle,685716883.0,6.967,7.532,-2.461,-0.73,11.28,5.55,110.08,-39.72
2,idle,689031915.0,7.207,6.517,-2.418,-0.85,6.4,3.23,109.99,-46.69
2,idle,689036915.0,7.216,6.517,-2.442,-0.55,6.89,3.66,110.0,-46.64
2,idle,689041915.0,7.24,6.522,-2.428,-0.55,7.44,4.02,110.0,-46.59
2,idle,689046915.0,7.245,6.503,-2.404,-0.49,7.8,4.02,110.01,-46.55
2,idle,689051915.0,7.207,6.512,-2.37,-0.37,8.17,4.33,110.0,-46.5
2,idle,689056915.0,7.254,6.503,-2.399,-0.06,8.6,4.76,110.01,-46.45
2,idle,689061915.0,7.207,6.503,-2.337,0.06,8.96,5.06,110.0,-46.41
2,idle,689066915.0,7.23,6.517,-2.394,0.43,9.39,5.24,110.01,-46.35
2,idle,689071915.0,7.202,6.527,-2.356,0.98,9.51,5.49,110.01,-46.3
2,idle,689076915.0,7.211,6.56,-2.37,1.22,9.88,5.49,110.01,-46.25
2,idle,689081915.0,7.178,6.555,-2.27,1.52,9.82,5.49,110.0,-46.19
2,idle,689086915.0,7.183,6.536,-2.274,1.71,9.63,5.49,109.99,-46.14
2,idle,689091915.0,7.12,6.574,-2.212,2.01,9.51,5.55,109.98,-46.09
2,idle,689096915.0,7.144,6.56,-2.274,2.26,9.15,5.61,109.97,-46.04
2,idle,689101915.0,7.159,6.531,-2.227,2.38,8.9,5.55,109.96,-46.0
2,idle,689106915.0,7.168,6.546,-2.279,2.8,8.41,5.67,109.96,-45.95
2,idle,689111915.0,7.14,6.565,-2.318,2.8,8.05,5.67,109.96,-45.91
2,idle,689116915.0,7.183,6.589,-2.337,2.93,7.87,5.67,109.97,-45.87
2,idle,689121915.0,7.187,6.551,-2.337,3.35,7.8,5.43,109.98,-45.83
2,idle,689126915.0,7.159,6.541,-2.418,3.41,7.62,5.55,110.0,-45.79
2,idle,689131915.0,7.149,6.498,-2.471,3.54,7.56,5.67,110.03,-45.76
2,idle,689136915.0,7.173,6.522,-2.437,3.66,7.32,5.49,110.06,-45.72
2,idle,689141915.0,7.173,6.488,-2.466,3.78,7.07,5.24,110.09,-45.69
2,idle,689146915.0,7.144,6.522,-2.49,3.78,6.83,5.12,110.13,-45.66
2,idle,689151915.0,7.135,6.512,-2.562,3.84,6.46,5.3,110.17,-45.62
2,idle,689156915.0,7.111,6.522,-2.538,3.9,6.28,5.73,110.22,-45.59
2,idle,689161915.0,7.096,6.56,-2.557,3.84,5.98,5.85,110.26,-45.55
2,idle,689166915.0,7.058,6.555,-2.576,3.66,5.79,6.04,110.3,-45.51
2,idle,689171915.0,7.034,6.56,-2.6,3.66,5.55,6.22,110.34,-45.48
2,idle,689176915.0,7.049,6.579,-2.591,3.54,4.94,6.52,110.38,-45.44
2,idle,689181915.0,7.092,6.555,-2.591,3.11,4.57,6.65,110.42,-45.41
2,idle,689186915.0,7.106,6.555,-2.648,2.93,3.84,6.46,110.47,-45.39
2,idle,689191915.0,7.197,6.579,-2.701,2.74,3.29,6.46,110.52,-45.37
2,idle,689196915.0,7.216,6.627,-2.72,2.38,2.99,6.46,110.57,-45.35
2,idle,689201915.0,7.269,6.613,-2.749,2.2,2.62,6.59,110.62,-45.34
2,idle,689206915.0,7.326,6.68,-2.753,1.77,2.32,6.71,110.66,-45.33
2,idle,689211915.0,7.389,6.713,-2.782,1.46,2.26,6.59,110.7,-45.32
2,idle,689216915.0,7.456,6.713,-2.782,1.22,2.01,6.4,110.75,-45.32
2,idle,689221915.0,7.523,6.732,-2.792,0.67,1.83,6.04,110.79,-45.32
2,idle,689226915.0,7.575,6.742,-2.72,0.3,1.46,5.91,110.81,-45.33
2,idle,689231915.0,7.59,6.728,-2.686,-0.18,1.4,5.61,110.83,-45.35
2,idle,689236915.0,7.647,6.699,-2.705,-0.49,0.98,5.37,110.85,-45.37
2,idle,689241915.0,7.671,6.699,-2.705,-0.67,0.73,5.12,110.87,-45.39
2,idle,689246915.0,7.676,6.704,-2.701,-0.98,0.73,4.88,110.89,-45.41
2,idle,689251915.0,7.685,6.67,-2.705,-0.91,0.49,4.51,110.91,-45.44
2,idle,689256915.0,7.676,6.709,-2.662,-0.98,0.06,4.09,110.92,-45.47
2,idle,689261915.0,7.661,6.699,-2.634,-1.04,0.12,3.78,110.92,-45.49
2,idle,689266915.0,7.661,6.732,-2.619,-0.91,0.0,3.41,110.92,-45.52
2,idle,689271915.0,7.628,6.737,-2.6,-1.16,-0.06,3.11,110.92,-45.54
2,idle,689276915.0,7.609,6.723,-2.552,-1.22,0.18,2.74,110.91,-45.56
2,idle,689281915.0,7.594,6.752,-2.552,-1.1,0.3,2.5,110.9,-45.58
2,idle,689286915.0,7.609,6.728,-2.576,-1.16,0.61,2.07,110.9,-45.59
2,idle,689291915.0,7.59,6.723,-2.523,-1.1,0.79,1.95,110.89,-45.61
2,idle,689296915.0,7.57,6.704,-2.562,-1.04,1.22,1.71,110.88,-45.62
2,idle,689301915.0,7.518,6.68,-2.595,-0.98,1.46,1.77,110.88,-45.63
2,idle,689306915.0,7.494,6.632,-2.586,-0.85,1.65,1.71,110.89,-45.64
2,idle,689311915.0,7.465,6.589,-2.61,-0.61,1.52,1.71,110.9,-45.65
2,idle,689316915.0,7.479,6.555,-2.624,-0.43,1.46,1.4,110.92,-45.66
2,idle,689321915.0,7.46,6.498,-2.638,-0.24,1.16,1.34,110.94,-45.68
2,idle,689326915.0,7.432,6.507,-2.6,-0.12,0.98,1.16,110.95,-45.69
2,idle,689331915.0,7.408,6.517,-2.658,0.0,0.61,1.1,110.98,-45.7
2,idle,689336915.0,7.436,6.527,-2.768,0.0,0.37,1.1,111.02,-45.72
2,idle,689341915.0,7.446,6.584,-2.725,-0.18,0.3,1.16,111.05,-45.73
2,idle,689346915.0,7.427,6.594,-2.672,-0.18,0.43,1.16,111.07,-45.73
2,idle,689351915.0,7.436,6.622,-2.624,-0.3,0.49,1.1,111.08,-45.74
2,idle,689356915.0,7.494,6.613,-2.682,-0.43,0.55,1.1,111.09,-45.75
2,idle,689361915.0,7.479,6.613,-2.619,-0.49,0.49,1.16,111.1,-45.76
2,idle,689366915.0,7.499,6.642,-2.658,-0.67,0.55,1.46,111.11,-45.77
2,idle,689371915.0,7.475,6.637,-2.614,-0.91,0.67,1.95,111.12,-45.78
2,idle,689376915.0,7.465,6.603,-2.528,-0.91,0.67,2.26,111.11,-45.79
2,idle,689381915.0,7.479,6.598,-2.552,-1.04,0.73,2.74,111.1,-45.8
2,idle,689386915.0,7.46,6.57,-2.567,-1.16,0.61,2.8,111.1,-45.82
2,idle,689391915.0,7.432,6.536,-2.562,-1.22,0.49,3.29,111.1,-45.83
2,idle,689396915.0,7.456,6.531,-2.571,-1.22,0.3,3.29,111.1,-45.85
2,idle,689401915.0,7.436,6.469,-2.557,-1.34,-0.06,3.6,111.11,-45.87
2,idle,689406915.0,7.456,6.421,-2.538,-1.4,-0.61,3.54,111.11,-45.9
2,idle,689411915.0,7.446,6.407,-2.6,-1.65,-1.16,3.29,111.12,-45.93
2,idle,689416915.0,7.489,6.416,-2.595,-1.89,-1.83,3.66,111.13,-45.96
2,idle,689421915.0,7.523,6.445,-2.591,-2.2,-1.89,3.78,111.13,-46.0
2,idle,689426915.0,7.575,6.383,-2.538,-2.62,-2.07,4.15,111.13,-46.05
2,idle,689431915.0,7.551,6.402,-2.49,-2.93,-2.32,4.02,111.12,-46.09
2,idle,689436915.0,7.527,6.397,-2.49,-3.41,-2.5,3.84,111.11,-46.13
2,idle,689441915.0,7.499,6.359,-2.433,-3.9,-2.32,3.96,111.08,-46.18
2,idle,689446915.0,7.484,6.316,-2.365,-4.02,-2.32,4.09,111.05,-46.23
2,idle,689451915.0,7.532,6.306,-2.313,-4.27,-2.56,4.02,111.01,-46.28
2,idle,689456915.0,7.508,6.282,-2.303,-4.57,-2.87,3.96,110.97,-46.33
2,idle,689461915.0,7.489,6.282,-2.251,-4.51,-2.74,3.84,110.93,-46.39
2,idle,689466915.0,7.494,6.239,-2.188,-4.76,-2.56,3.78,110.87,-46.44
2,idle,689471915.0,7.479,6.254,-2.14,-5.0,-2.38,3.72,110.81,-46.5
2,idle,689476915.0,7.475,6.23,-2.121,-5.18,-2.2,3.78,110.74,-46.55
2,idle,689481915.0,7.451,6.211,-2.164,-5.12,-1.95,3.66,110.69,-46.6
2,idle,689486915.0,7.398,6.182,-2.093,-5.24,-1.89,3.54,110.62,-46.65
2,idle,689491915.0,7.412,6.201,-2.059,-5.37,-1.71,3.23,110.55,-46.7
2,idle,689496915.0,7.403,6.22,-2.112,-5.55,-1.65,3.17,110.49,-46.74
2,idle,689501915.0,7.355,6.23,-2.083,-5.61,-1.52,3.17,110.42,-46.78
2,idle,689506915.0,7.369,6.22,-2.083,-5.79,-1.4,3.23,110.35,-46.81
2,idle,689511915.0,7.35,6.239,-2.131,-5.73,-1.04,3.41,110.29,-46.84
2,idle,689516915.0,7.35,6.244,-2.164,-5.85,-0.61,3.6,110.24,-46.87
2,idle,689521915.0,7.36,6.23,-2.102,-6.1,0.0,4.02,110.18,-46.9
2,idle,689526915.0,7.355,6.249,-2.064,-5.91,0.3,3.9,110.11,-46.92
2,idle,689531915.0,7.321,6.249,-2.102,-6.1,0.98,4.33,110.05,-46.94
2,idle,689536915.0,7.321,6.244,-2.126,-6.28,1.46,4.51,110.0,-46.95
2,idle,689541915.0,7.321,6.225,-2.116,-6.4,1.83,4.63,109.94,-46.97
2,idle,689546915.0,7.307,6.211,-2.193,-6.59,2.26,4.76,109.9,-46.98
2,idle,689551915.0,7.312,6.239,-2.184,-6.59,2.8,4.94,109.86,-46.98
2,idle,689556915.0,7.345,6.23,-2.198,-6.59,3.17,5.0,109.81,-46.99
2,idle,689561915.0,7.398,6.254,-2.198,-6.4,3.48,5.12,109.77,-46.99
2,idle,689566915.0,7.384,6.254,-2.255,-6.46,3.72,5.18,109.74,-46.99
2,idle,689571916.0,7.403,6.292,-2.274,-6.46,3.96,5.3,109.71,-46.99
2,idle,689576916.0,7.417,6.306,-2.265,-6.52,4.27,5.49,109.68,-46.99
2,idle,689581916.0,7.403,6.321,-2.298,-6.34,4.15,5.67,109.66,-46.98
2,idle,689586916.0,7.384,6.287,-2.279,-6.1,4.27,5.73,109.63,-46.98
2,idle,689591916.0,7.398,6.282,-2.251,-5.79,4.33,5.67,109.61,-46.98
2,idle,689596916.0,7.374,6.306,-2.274,-5.67,4.39,5.67,109.58,-46.97
2,idle,689601916.0,7.365,6.321,-2.27,-5.18,4.39,5.79,109.56,-46.96
2,idle,689606916.0,7.36,6.345,-2.342,-4.94,4.33,5.61,109.55,-46.95
2,idle,689611916.0,7.379,6.364,-2.365,-4.76,4.09,5.67,109.54,-46.94
2,idle,689616917.0,7.422,6.364,-2.447,-4.51,4.02,5.43,109.55,-46.93
2,idle,689621917.0,7.432,6.359,-2.471,-3.9,3.84,5.37,109.57,-46.92
2,idle,689626917.0,7.465,6.416,-2.423,-3.66,3.66,5.3,109.57,-46.91
2,idle,689631917.0,7.499,6.402,-2.523,-3.35,3.72,5.37,109.59,-46.91
2,idle,689636917.0,7.508,6.393,-2.538,-2.93,3.41,5.24,109.62,-46.9
2,idle,689641917.0,7.527,6.369,-2.538,-2.44,3.29,4.94,109.65,-46.9
2,idle,689646917.0,7.537,6.402,-2.61,-2.01,2.99,4.88,109.69,-46.9
2,idle,689651917.0,7.542,6.45,-2.614,-1.71,2.44,4.45,109.73,-46.89
2,idle,689656917.0,7.527,6.45,-2.638,-1.65,1.89,4.51,109.77,-46.89
2,idle,689661917.0,7.537,6.46,-2.71,-1.46,1.59,4.57,109.83,-46.89
2,idle,689666917.0,7.527,6.445,-2.701,-1.22,1.22,4.51,109.88,-46.89
2,idle,689671917.0,7.575,6.412,-2.682,-0.98,0.79,4.02,109.93,-46.89
2,idle,689676917.0,7.609,6.397,-2.634,-0.61,0.0,3.48,109.98,-46.91
2,idle,689681917.0,7.599,6.436,-2.667,-0.3,-0.73,2.74,110.02,-46.93
2,idle,689686917.0,7.618,6.498,-2.658,-0.12,-0.85,2.5,110.07,-46.94
2,idle,689691917.0,7.633,6.546,-2.648,-0.06,-1.16,2.44,110.11,-46.95
2,idle,689696917.0,7.594,6.594,-2.595,-0.18,-0.98,2.44,110.13,-46.95
2,idle,689701917.0,7.58,6.589,-2.567,-0.24,-1.1,2.56,110.16,-46.96
2,idle,689706917.0,7.594,6.603,-2.538,-0.49,-0.73,2.5,110.17,-46.97
2,idle,689711917.0,7.57,6.584,-2.514,-0.55,-0.73,2.2,110.18,-46.97
2,idle,689716917.0,7.551,6.584,-2.418,-0.37,-1.04,1.77,110.18,-46.98
2,idle,689721917.0,7.556,6.56,-2.423,-0.37,-1.46,1.46,110.18,-46.99
2,idle,689726917.0,7.57,6.574,-2.361,-0.43,-1.59,1.46,110.17,-47.0
2,idle,689731917.0,7.623,6.584,-2.322,-0.43,-2.01,1.16,110.15,-47.02
2,idle,689736917.0,7.647,6.512,-2.279,-0.12,-1.89,1.04,110.13,-47.05
2,idle,689741917.0,7.671,6.536,-2.207,-0.3,-1.77,1.04,110.1,-47.08
2,idle,689746917.0,7.728,6.527,-2.231,-0.06,-1.28,0.67,110.08,-47.11
2,idle,689751917.0,7.738,6.493,-2.193,-0.18,-0.79,0.55,110.05,-47.14
2,idle,689756917.0,7.738,6.493,-2.222,0.0,-0.37,0.43,110.03,-47.17
2,idle,689761917.0,7.728,6.474,-2.203,0.06,0.0,0.24,110.0,-47.2
2,idle,689766917.0,7.757,6.464,-2.145,0.06,0.55,0.06,109.97,-47.22
2,idle,689771917.0,7.733,6.474,-2.164,-0.06,0.98,-0.06,109.94,-47.25
2,idle,689776917.0,7.762,6.455,-2.121,0.0,1.34,-0.49,109.9,-47.27
2,idle,689781917.0,7.805,6.479,-2.15,-0.06,1.77,-0.98,109.87,-47.29
2,idle,689786917.0,7.81,6.469,-2.198,-0.12,2.32,-0.98,109.85,-47.31
2,idle,689791917.0,7.853,6.498,-2.169,-0.06,3.23,-1.34,109.82,-47.33
2,idle,689796917.0,7.906,6.488,-2.16,-0.37,4.02,-1.59,109.79,-47.34
2,idle,689801917.0,7.934,6.455,-2.212,-0.61,5.0,-1.52,109.77,-47.36
2,idle,689806917.0,7.949,6.436,-2.212,-0.61,6.1,-1.77,109.75,-47.37
2,idle,689811917.0,7.939,6.426,-2.155,-0.73,7.38,-1.89,109.73,-47.38
2,idle,689816917.0,7.93,6.421,-2.15,-1.04,8.54,-1.83,109.7,-47.38
2,idle,689821917.0,7.887,6.369,-2.179,-0.85,9.57,-1.83,109.68,-47.37
2,idle,689826917.0,7.815,6.359,-2.174,-0.91,10.73,-1.65,109.65,-47.36
2,idle,689831917.0,7.738,6.335,-2.207,-1.16,11.65,-1.59,109.64,-47.34
2,idle,689836917.0,7.705,6.321,-2.222,-1.16,12.32,-1.65,109.63,-47.31
2,idle,689841917.0,7.671,6.335,-2.203,-1.1,12.5,-1.71,109.61,-47.28
2,idle,689846917.0,7.652,6.302,-2.193,-1.28,12.44,-1.89,109.6,-47.25
2,idle,689851917.0,7.566,6.22,-2.227,-1.4,12.13,-2.01,109.59,-47.22
2,idle,689856917.0,7.527,6.244,-2.241,-1.46,11.71,-2.01,109.59,-47.19
2,idle,689861917.0,7.465,6.268,-2.227,-1.71,11.16,-2.13,109.58,-47.16
2,idle,689866917.0,7.46,6.211,-2.265,-1.83,10.24,-2.13,109.58,-47.14
2,idle,689871917.0,7.465,6.201,-2.27,-1.71,9.51,-2.5,109.58,-47.12
2,idle,689876917.0,7.465,6.22,-2.298,-1.65,8.41,-2.44,109.59,-47.1
2,idle,689881917.0,7.465,6.215,-2.303,-1.59,7.32,-2.74,109.6,-47.09
2,idle,689886917.0,7.494,6.22,-2.298,-1.46,6.71,-2.62,109.6,-47.09
2,idle,689891917.0,7.489,6.201,-2.342,-1.4,5.91,-2.5,109.62,-47.09
2,idle,689896917.0,7.542,6.211,-2.289,-1.4,5.0,-2.5,109.62,-47.09
2,idle,689901917.0,7.523,6.215,-2.346,-1.4,4.57,-2.5,109.64,-47.1
2,idle,689906918.0,7.518,6.239,-2.327,-1.52,4.02,-2.44,109.65,-47.11
2,idle,689911919.0,7.532,6.23,-2.385,-1.65,3.35,-2.44,109.66,-47.12
2,idle,689916919.0,7.556,6.191,-2.37,-1.46,2.93,-2.07,109.68,-47.14
2,idle,689921919.0,7.57,6.196,-2.351,-1.65,2.74,-2.13,109.7,-47.16
2,idle,689926920.0,7.542,6.22,-2.38,-1.65,2.38,-2.13,109.71,-47.17
2,idle,689931920.0,7.513,6.211,-2.37,-1.46,2.38,-2.01,109.73,-47.19
2,idle,689936920.0,7.513,6.23,-2.389,-1.34,2.26,-1.77,109.75,-47.2
2,idle,689941920.0,7.499,6.225,-2.38,-1.4,2.32,-1.65,109.77,-47.21
2,idle,689946920.0,7.475,6.244,-2.394,-1.4,2.32,-1.71,109.78,-47.22
2,idle,689951920.0,7.47,6.249,-2.38,-1.28,2.32,-1.46,109.8,-47.23
2,idle,689956920.0,7.436,6.22,-2.361,-1.16,2.38,-1.28,109.81,-47.24
2,idle,689961920.0,7.427,6.278,-2.361,-1.22,2.13,-1.1,109.82,-47.24
2,idle,689966920.0,7.427,6.268,-2.332,-1.04,2.07,-1.04,109.83,-47.24
2,idle,689971920.0,7.456,6.22,-2.332,-1.04,1.65,-0.85,109.84,-47.26
2,idle,689976920.0,7.46,6.239,-2.351,-1.04,1.4,-0.79,109.85,-47.27
2,idle,689981920.0,7.465,6.235,-2.318,-0.85,0.98,-0.43,109.86,-47.29
2,idle,689986920.0,7.47,6.23,-2.346,-1.04,0.79,-0.49,109.87,-47.3
2,idle,689991920.0,7.484,6.191,-2.346,-0.73,0.55,-0.24,109.88,-47.32
2,idle,689996920.0,7.503,6.206,-2.361,-0.73,0.3,0.06,109.9,-47.35
2,idle,690001920.0,7.484,6.211,-2.361,-0.67,0.12,0.3,109.91,-47.37
2,idle,690006920.0,7.489,6.206,-2.399,-0.73,0.18,0.49,109.93,-47.39
2,idle,690011920.0,7.499,6.22,-2.404,-0.67,0.18,0.73,109.95,-47.4
2,idle,690016920.0,7.508,6.249,-2.365,-0.55,0.0,0.85,109.97,-47.42
2,idle,690021920.0,7.527,6.23,-2.375,-0.73,0.24,1.1,109.98,-47.44
2,idle,690026920.0,7.551,6.23,-2.332,-0.61,0.43,0.91,109.99,-47.46
2,idle,690031920.0,7.518,6.273,-2.308,-0.79,0.37,0.98,109.99,-47.48
2,idle,690036921.0,7.523,6.258,-2.385,-0.85,0.61,1.16,110.0,-47.49
2,idle,690041922.0,7.532,6.273,-2.308,-0.85,0.43,1.22,110.0,-47.51
2,idle,690046923.0,7.58,6.258,-2.308,-1.04,0.37,1.46,110.0,-47.53
2,idle,690051923.0,7.599,6.258,-2.318,-1.04,0.37,1.16,110.0,-47.55
2,idle,690056923.0,7.58,6.311,-2.274,-0.98,0.18,1.16,109.99,-47.57
2,idle,690061923.0,7.59,6.292,-2.27,-0.85,0.06,1.46,109.99,-47.59
3,idle,693366960.0,7.666,6.709,-2.677,-10.43,-7.32,10.91,105.19,-46.69
3,idle,693371960.0,7.695,6.551,-2.811,-9.27,-6.65,12.13,105.31,-46.73
3,idle,693376960.0,7.748,6.426,-2.897,-8.05,-5.98,12.44,105.45,-46.78
3,idle,693381960.0,7.81,6.297,-3.036,-6.46,-5.18,12.38,105.62,-46.83
3,idle,693386960.0,7.824,6.191,-3.146,-5.37,-4.21,11.77,105.82,-46.88
3,idle,693391960.0,7.853,6.053,-3.184,-4.15,-3.11,10.79,106.04,-46.94
3,idle,693396960.0,7.872,5.962,-3.251,-3.11,-1.77,9.88,106.28,-46.99
3,idle,693401960.0,7.819,5.832,-3.318,-1.77,-0.55,8.6,106.54,-47.04
3,idle,693406961.0,7.786,5.832,-3.328,-0.49,0.55,6.89,106.8,-47.08
3,idle,693411961.0,7.69,5.827,-3.323,1.04,1.4,5.3,107.06,-47.11
3,idle,693416961.0,7.513,5.904,-3.294,2.38,2.01,3.66,107.31,-47.12
3,idle,693421961.0,7.345,5.952,-3.275,3.6,2.44,2.44,107.56,-47.11
3,idle,693426961.0,7.23,6.029,-3.28,4.57,2.68,1.22,107.8,-47.09
3,idle,693431961.0,7.087,6.139,-3.29,5.67,2.38,-0.18,108.04,-47.04
3,idle,693436961.0,6.948,6.158,-3.203,6.34,1.77,-1.65,108.26,-46.99
3,idle,693441961.0,6.843,6.225,-3.151,7.38,0.37,-2.87,108.47,-46.94
3,idle,693446961.0,6.694,6.297,-3.069,7.74,-1.1,-4.09,108.65,-46.88
3,idle,693451961.0,6.627,6.364,-3.069,8.05,-2.87,-5.06,108.84,-46.82
3,idle,693456961.0,6.555,6.378,-2.983,8.41,-4.88,-5.73,109.0,-46.77
3,idle,693461961.0,6.488,6.383,-2.945,8.54,-6.4,-5.73,109.16,-46.72
3,idle,693466961.0,6.45,6.383,-2.907,8.41,-7.93,-6.16,109.31,-46.68
3,idle,693471961.0,6.44,6.393,-2.825,8.35,-9.21,-6.4,109.44,-46.64
3,idle,693476961.0,6.369,6.359,-2.796,8.11,-10.37,-6.89,109.56,-46.61
3,idle,693481961.0,6.34,6.369,-2.691,8.05,-11.46,-7.32,109.67,-46.58
3,idle,693486961.0,6.325,6.416,-2.61,7.62,-12.68,-7.68,109.76,-46.56
3,idle,693491961.0,6.325,6.431,-2.581,7.13,-13.84,-7.68,109.83,-46.55
3,idle,693496961.0,6.292,6.469,-2.523,6.46,-15.0,-7.68,109.9,-46.53
3,idle,693501961.0,6.34,6.469,-2.409,5.73,-15.91,-7.38,109.93,-46.53
3,idle,693506961.0,6.359,6.493,-2.375,5.0,-16.71,-7.2,109.96,-46.53
3,idle,693511961.0,6.436,6.522,-2.303,4.09,-17.13,-6.95,109.97,-46.55
3,idle,693516961.0,6.579,6.637,-2.27,3.29,-17.13,-6.77,109.97,-46.56
3,idle,693521961.0,6.694,6.694,-2.212,2.2,-17.07,-6.16,109.94,-46.59
3,idle,693526961.0,6.814,6.79,-2.246,0.79,-16.52,-5.49,109.91,-46.61
3,idle,693531961.0,6.967,6.891,-2.193,-0.55,-15.49,-4.39,109.87,-46.63
3,idle,693536961.0,7.077,6.919,-2.193,-1.77,-14.15,-2.74,109.81,-46.65
3,idle,693541961.0,7.226,6.924,-2.164,-3.23,-12.44,-1.28,109.75,-46.68
3,idle,693546961.0,7.36,6.919,-2.184,-4.7,-10.61,0.0,109.68,-46.7
3,idle,693551961.0,7.451,6.891,-2.231,-6.28,-8.84,1.4,109.61,-46.73
3,idle,693556961.0,7.503,6.843,-2.26,-7.44,-7.13,2.87,109.55,-46.75
3,idle,693561961.0,7.537,6.776,-2.236,-8.48,-5.37,4.45,109.48,-46.78
3,idle,693566961.0,7.537,6.709,-2.332,-9.15,-3.84,5.73,109.43,-46.79
3,idle,693571961.0,7.532,6.651,-2.337,-9.76,-2.44,6.71,109.38,-46.81
3,idle,693576961.0,7.551,6.594,-2.318,-10.3,-1.34,7.26,109.33,-46.82
3,idle,693581961.0,7.57,6.541,-2.37,-10.61,-0.55,7.5,109.29,-46.84
3,idle,693586961.0,7.604,6.479,-2.365,-10.79,-0.3,7.44,109.25,-46.86
3,idle,693591961.0,7.666,6.469,-2.461,-10.98,-0.24,7.13,109.23,-46.88
3,idle,693596961.0,7.709,6.46,-2.495,-10.98,-0.12,6.89,109.22,-46.9
3,idle,693601961.0,7.815,6.455,-2.586,-11.1,-0.12,6.65,109.21,-46.93
3,idle,693606961.0,7.858,6.45,-2.595,-11.1,0.49,6.28,109.21,-46.96
3,idle,693611961.0,7.939,6.402,-2.638,-10.67,1.28,5.73,109.23,-46.99
3,idle,693616961.0,7.93,6.402,-2.763,-10.18,2.13,5.3,109.26,-47.02
3,idle,693621961.0,7.977,6.407,-2.749,-9.88,3.17,4.82,109.29,-47.04
3,idle,693626961.0,7.963,6.426,-2.696,-9.02,4.21,4.57,109.31,-47.05
3,idle,693631961.0,7.901,6.431,-2.768,-8.35,5.06,4.21,109.35,-47.06
3,idle,693636961.0,7.819,6.426,-2.715,-7.56,5.98,3.9,109.39,-47.05
3,idle,693641961.0,7.791,6.416,-2.82,-6.65,6.59,3.41,109.44,-47.04
3,idle,693646961.0,7.714,6.45,-2.83,-5.73,6.95,3.05,109.5,-47.02
3,idle,693651961.0,7.59,6.431,-2.868,-4.76,7.01,2.74,109.56,-46.98
3,idle,693656961.0,7.508,6.512,-2.892,-3.78,7.07,2.38,109.63,-46.94
3,idle,693661961.0,7.422,6.498,-2.964,-2.74,6.71,2.07,109.72,-46.89
3,idle,693666961.0,7.336,6.531,-2.945,-1.65,6.4,1.46,109.8,-46.83
3,idle,693671961.0,7.24,6.546,-2.978,-0.79,5.98,1.4,109.89,-46.77
3,idle,693676961.0,7.183,6.594,-2.926,0.18,5.37,0.67,109.97,-46.71
3,idle,693681961.0,7.163,6.618,-2.978,0.91,4.33,0.18,110.06,-46.65
3,idle,693686962.0,7.12,6.689,-2.998,1.77,3.48,-0.3,110.15,-46.58
3,idle,693691962.0,7.106,6.67,-3.017,2.32,2.62,-0.79,110.25,-46.52
3,idle,693696962.0,7.116,6.718,-3.012,2.87,1.59,-0.98,110.34,-46.46
3,idle,693701962.0,7.092,6.756,-3.002,3.41,0.49,-1.16,110.43,-46.4
3,idle,693706962.0,7.096,6.776,-3.06,3.84,-0.49,-1.52,110.52,-46.35
3,idle,693711962.0,7.14,6.732,-3.093,4.09,-1.04,-1.4,110.63,-46.31
3,idle,693716962.0,7.211,6.747,-3.108,4.51,-1.59,-1.52,110.73,-46.27
3,idle,693721962.0,7.207,6.737,-3.093,4.82,-1.95,-1.52,110.83,-46.24
3,idle,693726962.0,7.245,6.713,-3.089,5.12,-2.38,-1.59,110.94,-46.22
3,idle,693731963.0,7.245,6.718,-3.098,5.37,-2.2,-1.34,111.04,-46.19
3,idle,693736964.0,7.274,6.685,-3.103,5.43,-1.95,-1.04,111.14,-46.17
3,idle,693741964.0,7.264,6.661,-3.132,5.55,-1.65,-0.79,111.25,-46.15
3,idle,693746964.0,7.278,6.627,-3.175,5.73,-1.04,-0.43,111.37,-46.12
3,idle,693751964.0,7.259,6.622,-3.16,5.79,-0.43,-0.24,111.48,-46.1
3,idle,693756964.0,7.235,6.627,-3.194,5.73,-0.06,0.0,111.59,-46.07
3,idle,693761964.0,7.23,6.598,-3.146,5.85,0.3,0.06,111.7,-46.04
3,idle,693766964.0,7.221,6.603,-3.184,5.91,0.67,0.37,111.81,-46.0
3,idle,693771964.0,7.202,6.584,-3.103,5.91,0.73,0.61,111.9,-45.97
3,idle,693776964.0,7.192,6.546,-3.103,5.91,0.79,0.67,112.0,-45.95
3,idle,693781964.0,7.159,6.541,-3.065,5.85,0.91,1.04,112.09,-45.92
3,idle,693786964.0,7.13,6.565,-3.093,5.85,0.79,0.91,112.18,-45.89
3,idle,693791964.0,7.106,6.536,-3.132,5.55,0.55,0.98,112.28,-45.85
3,idle,693796965.0,7.082,6.546,-3.084,5.49,0.24,0.85,112.37,-45.82
3,idle,693801965.0,7.068,6.531,-3.127,5.37,-0.43,0.91,112.46,-45.79
3,idle,693806965.0,7.072,6.541,-3.084,5.3,-0.67,0.91,112.54,-45.77
3,idle,693811965.0,7.092,6.507,-3.06,5.3,-1.1,1.22,112.62,-45.75
3,idle,693816965.0,7.087,6.527,-3.069,5.12,-1.46,1.22,112.69,-45.73
3,idle,693821965.0,7.163,6.56,-3.079,5.12,-1.59,1.4,112.77,-45.72
3,idle,693826965.0,7.168,6.565,-3.036,4.88,-1.89,1.22,112.83,-45.71
3,idle,693831965.0,7.168,6.503,-2.998,4.63,-1.89,1.1,112.89,-45.71
3,idle,693836966.0,7.163,6.522,-3.031,4.45,-1.83,1.28,112.96,-45.7
3,idle,693841966.0,7.154,6.488,-2.993,4.27,-1.77,1.59,113.01,-45.69
3,idle,693846966.0,7.173,6.493,-2.954,3.96,-1.46,1.77,113.06,-45.69
3,idle,693851967.0,7.216,6.44,-2.935,3.66,-1.16,1.89,113.11,-45.69
3,idle,693856968.0,7.197,6.426,-2.954,3.6,-1.22,1.83,113.16,-45.7
3,idle,693861968.0,7.221,6.426,-2.926,3.23,-1.1,1.89,113.2,-45.7
3,idle,693866968.0,7.192,6.436,-2.911,3.05,-0.98,2.01,113.24,-45.7
3,idle,693871968.0,7.183,6.44,-2.921,2.68,-1.04,2.32,113.27,-45.7
3,idle,693876968.0,7.183,6.407,-2.887,2.38,-0.91,2.44,113.31,-45.7
3,idle,693881969.0,7.178,6.421,-2.902,2.01,-0.85,2.68,113.34,-45.7
3,idle,693886969.0,7.178,6.388,-2.887,1.65,-0.73,2.93,113.36,-45.71
3,idle,693891969.0,7.173,6.383,-2.859,1.22,-0.79,2.74,113.38,-45.71
3,idle,693896969.0,7.144,6.345,-2.859,1.22,-1.22,2.74,113.41,-45.72
3,idle,693901969.0,7.159,6.364,-2.863,0.61,-1.71,2.68,113.43,-45.73
3,idle,693906969.0,7.101,6.345,-2.787,0.3,-2.13,2.99,113.43,-45.74
3,idle,693911970.0,7.163,6.33,-2.792,0.0,-2.56,3.29,113.44,-45.75
3,idle,693916970.0,7.159,6.33,-2.777,-0.61,-2.87,3.6,113.44,-45.77
3,idle,693921970.0,7.202,6.306,-2.777,-0.79,-2.74,3.6,113.45,-45.8
3,idle,693926970.0,7.254,6.354,-2.763,-0.98,-2.56,3.72,113.44,-45.82
3,idle,693931970.0,7.298,6.335,-2.787,-1.4,-2.5,3.84,113.44,-45.85
3,idle,693936970.0,7.341,6.388,-2.787,-1.65,-2.2,4.33,113.44,-45.87
3,idle,693941970.0,7.302,6.378,-2.844,-2.01,-1.71,4.63,113.44,-45.89
3,idle,693946970.0,7.336,6.393,-2.792,-2.38,-1.1,5.06,113.43,-45.9
3,idle,693951970.0,7.345,6.354,-2.792,-2.74,-0.61,5.61,113.42,-45.92
3,idle,693956970.0,7.355,6.354,-2.782,-3.05,-0.18,5.73,113.41,-45.94
3,idle,693961970.0,7.312,6.33,-2.82,-3.35,0.49,5.91,113.41,-45.95
3,idle,693966970.0,7.274,6.302,-2.811,-3.41,0.61,5.98,113.4,-45.95
3,idle,693971970.0,7.307,6.297,-2.734,-3.54,0.73,6.28,113.39,-45.97
3,idle,693976970.0,7.264,6.311,-2.677,-3.72,0.67,6.34,113.36,-45.98
3,idle,693981970.0,7.274,6.268,-2.715,-3.72,0.67,6.46,113.34,-45.99
3,idle,693986970.0,7.25,6.282,-2.725,-3.66,0.67,6.34,113.33,-46.0
3,idle,693991970.0,7.226,6.278,-2.701,-3.78,0.67,6.52,113.31,-46.01
3,idle,693996970.0,7.235,6.258,-2.729,-3.84,0.73,6.65,113.29,-46.02
3,idle,694001970.0,7.259,6.258,-2.787,-3.84,0.61,6.59,113.29,-46.03
3,idle,694006970.0,7.264,6.287,-2.787,-3.84,0.49,6.71,113.28,-46.04
3,idle,694011970.0,7.25,6.297,-2.811,-4.02,0.24,6.65,113.28,-46.04
3,idle,694016970.0,7.259,6.302,-2.801,-3.9,0.0,6.77,113.27,-46.05
3,idle,694021970.0,7.211,6.311,-2.811,-3.96,-0.3,7.01,113.27,-46.06
3,idle,694026970.0,7.25,6.325,-2.792,-3.84,-0.67,7.13,113.26,-46.07
3,idle,694031970.0,7.23,6.33,-2.816,-3.54,-0.91,7.32,113.26,-46.07
3,idle,694036970.0,7.288,6.359,-2.772,-3.17,-1.52,7.2,113.25,-46.09
3,idle,694041970.0,7.307,6.349,-2.768,-3.11,-1.95,7.26,113.24,-46.11
3,idle,694046970.0,7.298,6.369,-2.763,-2.8,-2.56,6.89,113.23,-46.13
3,idle,694051970.0,7.369,6.388,-2.796,-2.62,-2.68,7.01,113.23,-46.15
3,idle,694056970.0,7.412,6.407,-2.801,-2.44,-2.62,7.07,113.22,-46.17
3,idle,694061970.0,7.489,6.45,-2.84,-2.38,-2.5,7.07,113.22,-46.19
3,idle,694066970.0,7.527,6.431,-2.897,-2.13,-2.2,7.01,113.23,-46.22
3,idle,694071970.0,7.547,6.436,-2.931,-1.95,-1.83,7.01,113.25,-46.24
3,idle,694076970.0,7.57,6.378,-2.935,-1.83,-1.22,7.07,113.27,-46.26
3,idle,694081970.0,7.594,6.378,-2.964,-1.83,-0.61,6.95,113.29,-46.29
3,idle,694086970.0,7.585,6.364,-2.954,-1.52,0.0,7.07,113.32,-46.31
3,idle,694091970.0,7.58,6.369,-2.926,-1.22,0.37,6.95,113.34,-46.32
3,idle,694096970.0,7.532,6.373,-2.902,-0.79,0.79,6.65,113.36,-46.33
3,idle,694101970.0,7.499,6.388,-2.964,-0.79,0.79,6.4,113.38,-46.34
3,idle,694106970.0,7.446,6.388,-2.892,-0.49,0.73,6.1,113.4,-46.34
3,idle,694111970.0,7.436,6.44,-2.931,-0.3,0.73,5.73,113.42,-46.34
3,idle,694116970.0,7.412,6.479,-2.907,-0.3,0.67,5.55,113.43,-46.34
3,idle,694121970.0,7.408,6.488,-2.926,0.0,0.55,5.3,113.45,-46.33
3,idle,694126970.0,7.398,6.522,-2.902,0.24,0.55,4.88,113.46,-46.32
3,idle,694131970.0,7.412,6.512,-2.907,0.3,0.73,4.82,113.47,-46.31
3,idle,694136970.0,7.393,6.555,-2.897,0.55,0.98,4.51,113.48,-46.3
3,idle,694141971.0,7.369,6.579,-2.878,0.85,1.1,4.45,113.49,-46.28
3,idle,694146971.0,7.345,6.56,-2.897,1.1,1.34,4.39,113.5,-46.26
3,idle,694151971.0,7.336,6.574,-2.873,1.28,1.59,4.39,113.51,-46.24
3,idle,694156971.0,7.331,6.546,-2.844,1.34,1.77,4.27,113.52,-46.23
3,idle,694161971.0,7.331,6.579,-2.878,1.34,1.83,4.09,113.53,-46.2
3,idle,694166971.0,7.298,6.536,-2.911,1.52,1.95,3.78,113.54,-46.18
3,idle,694171971.0,7.283,6.527,-2.883,1.71,1.83,3.48,113.56,-46.16
3,idle,694176971.0,7.274,6.536,-2.887,1.77,1.52,3.23,113.57,-46.14
3,idle,694181971.0,7.264,6.522,-2.921,1.77,1.34,2.93,113.59,-46.12
3,idle,694186971.0,7.23,6.522,-2.907,1.89,0.91,2.68,113.61,-46.1
3,idle,694191971.0,7.24,6.507,-2.892,1.95,0.37,2.32,113.63,-46.09
3,idle,694196971.0,7.23,6.536,-2.907,1.77,-0.24,1.95,113.64,-46.07
3,idle,694201971.0,7.221,6.522,-2.859,1.95,-0.85,1.59,113.65,-46.06
3,idle,694206971.0,7.211,6.517,-2.892,1.65,-1.16,1.28,113.67,-46.05
3,idle,694211971.0,7.24,6.512,-2.868,1.77,-1.71,1.28,113.68,-46.05
3,idle,694216971.0,7.259,6.488,-2.907,1.71,-2.07,0.85,113.69,-46.05
3,idle,694221971.0,7.264,6.464,-2.907,1.4,-2.2,0.67,113.71,-46.06
3,idle,694226971.0,7.288,6.483,-2.95,1.28,-2.07,0.55,113.73,-46.06
3,idle,694231971.0,7.283,6.479,-2.926,1.04,-2.07,0.55,113.75,-46.06
3,idle,694236972.0,7.293,6.483,-2.954,0.73,-1.89,0.61,113.77,-46.06
3,idle,694241972.0,7.269,6.436,-2.974,0.43,-1.34,0.73,113.79,-46.06
3,idle,694246972.0,7.278,6.44,-2.993,0.12,-0.98,0.67,113.81,-46.06
3,idle,694251972.0,7.283,6.445,-2.969,-0.06,-0.61,0.49,113.83,-46.06
3,idle,694256972.0,7.24,6.436,-2.95,-0.43,-0.37,0.49,113.85,-46.05
3,idle,694261972.0,7.23,6.397,-2.954,-0.73,-0.06,0.55,113.86,-46.04
3,idle,694266972.0,7.197,6.383,-2.907,-1.04,0.12,0.85,113.87,-46.04
3,idle,694271972.0,7.207,6.383,-2.902,-1.22,0.37,1.04,113.87,-46.03
3,idle,694276972.0,7.202,6.378,-2.94,-1.46,0.49,1.16,113.88,-46.02
3,idle,694281972.0,7.197,6.393,-2.935,-1.77,0.67,0.85,113.89,-46.01
3,idle,694286972.0,7.211,6.402,-2.911,-2.07,0.73,0.61,113.89,-46.0
3,idle,694291972.0,7.211,6.44,-2.854,-2.32,0.67,0.55,113.88,-45.99
3,idle,694296972.0,7.211,6.426,-2.887,-2.5,0.73,0.61,113.87,-45.98
3,idle,694301972.0,7.197,6.388,-2.921,-2.93,0.73,0.73,113.87,-45.97
3,idle,694306972.0,7.216,6.378,-2.974,-2.99,0.73,0.91,113.88,-45.96
3,idle,694311972.0,7.24,6.373,-2.974,-3.35,0.79,0.91,113.89,-45.96
3,idle,694316972.0,7.235,6.345,-2.969,-3.35,0.85,0.79,113.9,-45.95
3,idle,694321972.0,7.211,6.364,-2.964,-3.23,0.67,0.49,113.9,-45.95
3,idle,694326972.0,7.245,6.378,-2.993,-3.35,0.49,0.3,113.91,-45.94
3,idle,694331972.0,7.221,6.378,-3.031,-3.29,0.37,0.18,113.92,-45.93
3,idle,694336972.0,7.192,6.325,-2.978,-3.48,0.0,0.0,113.93,-45.93
3,idle,694341972.0,7.23,6.383,-2.911,-3.29,-0.12,0.0,113.93,-45.93
3,idle,694346972.0,7.235,6.402,-2.859,-3.23,-0.18,0.0,113.92,-45.93
3,idle,694351972.0,7.245,6.503,-2.931,-3.05,-0.24,-0.3,113.91,-45.92
3,idle,694356972.0,7.293,6.565,-2.892,-3.05,0.0,-0.43,113.89,-45.91
3,idle,694361972.0,7.264,6.646,-2.844,-3.11,0.43,-0.49,113.86,-45.89
3,idle,694366972.0,7.345,6.699,-2.825,-3.17,0.67,-0.55,113.82,-45.88
3,idle,694371972.0,7.369,6.752,-2.883,-3.29,1.04,-0.49,113.79,-45.86
3,idle,694376972.0,7.35,6.814,-2.792,-3.54,1.4,-0.24,113.75,-45.83
3,idle,694381972.0,7.35,6.814,-2.792,-3.84,1.89,0.06,113.7,-45.81
3,idle,694386972.0,7.369,6.761,-2.844,-4.02,2.38,0.18,113.66,-45.78
3,idle,694391972.0,7.331,6.742,-2.859,-4.15,2.44,0.37,113.63,-45.75
3,idle,694396972.0,7.312,6.699,-2.844,-4.15,2.56,0.24,113.59,-45.73
3,idle,694401972.0,7.293,6.632,-2.887,-4.39,2.62,0.12,113.57,-45.71
3,idle,694406972.0,7.254,6.603,-2.84,-4.02,2.38,-0.24,113.55,-45.69
3,idle,694411972.0,7.226,6.589,-2.854,-4.15,1.83,-0.43,113.52,-45.67
3,idle,694416972.0,7.245,6.522,-2.844,-3.9,1.71,-0.85,113.5,-45.66
3,idle,694421972.0,7.24,6.527,-2.82,-3.9,1.22,-1.16,113.48,-45.65
3,idle,694426972.0,7.221,6.507,-2.835,-3.9,1.1,-1.71,113.46,-45.64
4,idle,697737002.0,7.427,6.503,-2.6,-2.56,0.12,1.04,111.48,-46.15
4,idle,697742002.0,7.412,6.512,-2.595,-2.5,0.06,0.85,111.47,-46.16
4,idle,697747002.0,7.432,6.507,-2.696,-2.5,0.3,0.73,111.48,-46.17
4,idle,697752003.0,7.412,6.517,-2.662,-2.62,0.37,0.73,111.48,-46.17
4,idle,697757003.0,7.403,6.469,-2.638,-2.5,0.85,1.04,111.48,-46.18
4,idle,697762004.0,7.403,6.464,-2.682,-2.5,1.22,1.22,111.49,-46.18
4,idle,697767004.0,7.379,6.46,-2.662,-2.5,1.52,1.22,111.5,-46.18
4,idle,697772004.0,7.345,6.469,-2.624,-2.44,1.77,1.22,111.5,-46.18
4,idle,697777004.0,7.274,6.436,-2.677,-2.38,1.83,1.04,111.51,-46.17
4,idle,697782004.0,7.254,6.474,-2.662,-2.32,1.89,1.4,111.51,-46.16
4,idle,697787004.0,7.226,6.455,-2.667,-2.32,1.65,1.28,111.52,-46.15
4,idle,697792004.0,7.178,6.46,-2.61,-2.13,1.34,1.22,111.52,-46.13
4,idle,697797004.0,7.197,6.469,-2.658,-2.26,0.91,1.4,111.52,-46.12
4,idle,697802004.0,7.202,6.46,-2.667,-2.07,0.55,1.22,111.53,-46.11
4,idle,697807004.0,7.197,6.464,-2.672,-1.95,0.0,0.98,111.54,-46.11
4,idle,697812004.0,7.211,6.493,-2.648,-1.89,-0.79,0.85,111.55,-46.11
4,idle,697817004.0,7.259,6.507,-2.648,-1.95,-1.52,0.61,111.55,-46.11
4,idle,697822004.0,7.317,6.531,-2.672,-2.13,-1.95,0.67,111.55,-46.12
4,idle,697827004.0,7.384,6.546,-2.638,-2.32,-2.44,0.43,111.55,-46.13
4,idle,697832004.0,7.422,6.57,-2.682,-2.44,-2.5,0.3,111.55,-46.15
4,idle,697837005.0,7.489,6.589,-2.691,-2.56,-2.56,0.06,111.55,-46.17
4,idle,697842005.0,7.513,6.57,-2.634,-2.62,-2.26,0.0,111.54,-46.19
4,idle,697847006.0,7.532,6.613,-2.648,-2.8,-1.95,0.0,111.53,-46.21
4,idle,697852006.0,7.547,6.579,-2.686,-2.99,-1.22,0.0,111.53,-46.22
4,idle,697857006.0,7.566,6.555,-2.682,-3.11,-0.37,0.0,111.53,-46.24
4,idle,697862007.0,7.523,6.574,-2.653,-2.99,0.37,0.0,111.53,-46.25
4,idle,697867007.0,7.499,6.551,-2.624,-2.93,1.22,0.12,111.52,-46.25
4,idle,697872007.0,7.47,6.574,-2.648,-2.99,1.89,0.24,111.51,-46.25
4,idle,697877007.0,7.408,6.551,-2.614,-3.05,2.13,0.18,111.5,-46.24
4,idle,697882007.0,7.355,6.498,-2.672,-2.99,2.38,0.24,111.5,-46.23
4,idle,697887007.0,7.293,6.488,-2.619,-2.93,2.44,0.49,111.5,-46.22
4,idle,697892007.0,7.245,6.498,-2.614,-2.74,2.13,0.43,111.49,-46.2
4,idle,697897007.0,7.226,6.469,-2.6,-2.56,1.65,0.24,111.49,-46.19
4,idle,697902007.0,7.187,6.493,-2.571,-2.56,0.79,0.3,111.48,-46.18
4,idle,697907007.0,7.159,6.464,-2.576,-2.2,0.06,0.0,111.47,-46.17
4,idle,697912007.0,7.173,6.455,-2.591,-2.2,-0.85,0.0,111.47,-46.17
4,idle,697917007.0,7.197,6.46,-2.562,-1.95,-1.4,-0.3,111.46,-46.17
4,idle,697922007.0,7.24,6.474,-2.619,-1.89,-2.07,-0.43,111.47,-46.18
4,idle,697927008.0,7.254,6.479,-2.567,-1.83,-2.44,-0.55,111.46,-46.19
4,idle,697932008.0,7.259,6.507,-2.567,-1.71,-2.56,-0.85,111.45,-46.2
4,idle,697937008.0,7.317,6.541,-2.6,-1.59,-2.38,-0.79,111.45,-46.21
4,idle,697942008.0,7.35,6.541,-2.557,-1.77,-2.01,-0.85,111.44,-46.22
4,idle,697947008.0,7.379,6.551,-2.552,-1.52,-1.77,-0.85,111.43,-46.23
4,idle,697952008.0,7.384,6.56,-2.567,-1.83,-1.22,-0.67,111.42,-46.24
4,idle,697957008.0,7.393,6.589,-2.571,-1.77,-0.61,-0.55,111.41,-46.25
4,idle,697962008.0,7.374,6.637,-2.581,-2.01,-0.24,-0.37,111.4,-46.24
4,idle,697967008.0,7.369,6.551,-2.605,-2.07,0.06,-0.12,111.39,-46.24
4,idle,697972008.0,7.35,6.522,-2.605,-2.13,0.55,0.18,111.39,-46.24
4,idle,697977008.0,7.312,6.522,-2.624,-2.13,0.67,0.18,111.39,-46.24
4,idle,697982008.0,7.283,6.536,-2.6,-2.2,0.85,0.3,111.38,-46.23
4,idle,697987008.0,7.278,6.493,-2.619,-2.13,0.85,0.24,111.38,-46.22
4,idle,697992008.0,7.283,6.488,-2.543,-2.13,0.61,0.24,111.37,-46.22
4,idle,697997008.0,7.278,6.483,-2.591,-2.13,0.55,-0.12,111.37,-46.21
4,idle,698002008.0,7.259,6.493,-2.552,-2.2,0.18,-0.24,111.36,-46.21
4,idle,698007008.0,7.278,6.498,-2.571,-2.32,-0.12,-0.43,111.36,-46.21
4,idle,698012008.0,7.293,6.488,-2.581,-2.2,0.0,-0.61,111.35,-46.21
4,idle,698017008.0,7.317,6.503,-2.538,-2.32,-0.18,-0.55,111.34,-46.22
4,idle,698022008.0,7.307,6.507,-2.581,-2.38,-0.24,-0.67,111.33,-46.22
4,idle,698027008.0,7.345,6.517,-2.61,-2.44,-0.18,-0.79,111.33,-46.22
4,idle,698032008.0,7.365,6.507,-2.6,-2.32,-0.12,-1.04,111.33,-46.22
4,idle,698037008.0,7.369,6.503,-2.624,-2.38,0.06,-0.98,111.33,-46.23
4,idle,698042008.0,7.379,6.503,-2.624,-2.38,-0.06,-0.85,111.33,-46.23
4,idle,698047008.0,7.365,6.522,-2.581,-2.44,0.18,-0.73,111.33,-46.24
4,idle,698052008.0,7.36,6.512,-2.595,-2.5,0.24,-0.55,111.32,-46.24
4,idle,698057008.0,7.345,6.541,-2.581,-2.38,0.49,-0.43,111.31,-46.24
4,idle,698062008.0,7.336,6.546,-2.581,-2.5,0.49,-0.43,111.31,-46.23
4,idle,698067008.0,7.336,6.536,-2.571,-2.32,0.73,-0.24,111.3,-46.23
4,idle,698072008.0,7.345,6.536,-2.557,-2.56,1.04,-0.18,111.29,-46.23
4,idle,698077008.0,7.288,6.527,-2.562,-2.56,1.1,-0.06,111.28,-46.22
4,idle,698082008.0,7.293,6.517,-2.576,-2.68,1.1,-0.12,111.27,-46.21
4,idle,698087008.0,7.298,6.522,-2.634,-2.68,1.1,-0.18,111.27,-46.2
4,idle,698092008.0,7.312,6.479,-2.581,-2.87,1.1,-0.06,111.27,-46.2
4,idle,698097008.0,7.317,6.488,-2.658,-2.93,1.04,-0.06,111.27,-46.2
4,idle,698102008.0,7.283,6.488,-2.643,-2.8,0.79,-0.37,111.28,-46.19
4,idle,698107008.0,7.317,6.469,-2.591,-2.74,0.49,-0.55,111.27,-46.19
4,idle,698112008.0,7.302,6.474,-2.643,-2.8,0.37,-0.61,111.28,-46.19
4,idle,698117008.0,7.326,6.45,-2.61,-2.87,0.06,-0.55,111.28,-46.2
4,idle,698122008.0,7.345,6.474,-2.662,-2.74,-0.12,-0.49,111.29,-46.2
4,idle,698127008.0,7.374,6.498,-2.638,-2.62,-0.12,-0.73,111.29,-46.21
4,idle,698132008.0,7.393,6.517,-2.667,-2.74,-0.3,-0.73,111.3,-46.21
4,idle,698137008.0,7.408,6.507,-2.634,-2.68,-0.24,-0.73,111.3,-46.22
4,idle,698142008.0,7.389,6.503,-2.6,-2.5,-0.06,-0.79,111.3,-46.23
4,idle,698147008.0,7.422,6.503,-2.6,-2.56,-0.12,-0.61,111.29,-46.23
4,idle,698152008.0,7.427,6.503,-2.638,-2.56,0.37,-0.24,111.3,-46.24
4,idle,698157008.0,7.436,6.464,-2.576,-2.38,0.67,-0.18,111.29,-46.25
4,idle,698162008.0,7.417,6.512,-2.576,-2.56,0.98,-0.06,111.29,-46.25
4,idle,698167008.0,7.398,6.507,-2.552,-2.5,1.34,-0.12,111.28,-46.25
4,idle,698172008.0,7.369,6.498,-2.605,-2.5,1.52,-0.06,111.28,-46.25
4,idle,698177008.0,7.345,6.512,-2.629,-2.38,1.71,0.0,111.28,-46.24
4,idle,698182008.0,7.355,6.498,-2.629,-2.5,1.65,0.12,111.28,-46.24
4,idle,698187008.0,7.321,6.474,-2.643,-2.44,1.34,0.0,111.29,-46.23
4,idle,698192008.0,7.283,6.45,-2.557,-2.62,1.04,-0.06,111.28,-46.23
4,idle,698197008.0,7.25,6.445,-2.619,-2.32,0.67,-0.18,111.29,-46.23
4,idle,698202008.0,7.259,6.488,-2.648,-2.26,0.12,-0.24,111.29,-46.22
4,idle,698207008.0,7.235,6.498,-2.614,-2.32,-0.43,-0.55,111.3,-46.22
4,idle,698212008.0,7.264,6.488,-2.624,-2.32,-0.91,-0.55,111.3,-46.22
4,idle,698217008.0,7.278,6.479,-2.643,-2.26,-1.4,-0.49,111.31,-46.22
4,idle,698222008.0,7.317,6.531,-2.614,-2.32,-1.52,-0.85,111.3,-46.23
4,idle,698227008.0,7.35,6.546,-2.629,-2.56,-1.83,-0.85,111.3,-46.24
4,idle,698232008.0,7.389,6.546,-2.629,-2.68,-1.65,-0.73,111.3,-46.25
4,idle,698237008.0,7.403,6.527,-2.658,-2.8,-1.34,-0.67,111.31,-46.26
4,idle,698242008.0,7.47,6.512,-2.653,-2.8,-1.28,-0.91,111.31,-46.27
4,idle,698257008.0,7.446,6.565,-2.576,-2.99,-0.24,-0.61,111.29,-46.3
4,idle,698262008.0,7.46,6.589,-2.643,-3.23,0.12,-0.67,111.29,-46.3
4,idle,698287008.0,7.331,6.651,-2.514,-2.8,1.16,-0.55,111.19,-46.26
4,idle,698297008.0,7.259,6.642,-2.547,-2.2,1.65,-0.43,111.17,-46.22
4,idle,698302008.0,7.23,6.67,-2.504,-1.95,1.71,-0.61,111.14,-46.2
4,idle,698307008.0,7.14,6.661,-2.519,-1.65,1.46,-0.55,111.13,-46.17
4,idle,698312008.0,7.092,6.665,-2.495,-1.59,1.22,-0.73,111.11,-46.14
4,idle,698317008.0,7.101,6.68,-2.533,-1.52,1.04,-0.79,111.09,-46.1
4,idle,698322008.0,7.116,6.685,-2.528,-1.34,0.67,-0.73,111.08,-46.08
4,idle,698327008.0,7.082,6.689,-2.48,-0.98,0.3,-0.91,111.06,-46.05
4,idle,698332008.0,7.077,6.646,-2.48,-0.91,0.0,-1.16,111.04,-46.03
4,idle,698337008.0,7.13,6.646,-2.452,-0.73,-0.18,-1.22,111.02,-46.01
4,idle,698342008.0,7.111,6.637,-2.456,-0.61,-0.12,-1.46,111.01,-45.99
4,idle,698347008.0,7.106,6.622,-2.456,-0.67,-0.06,-1.83,110.99,-45.98
4,idle,698352009.0,7.14,6.613,-2.523,-0.73,0.12,-1.59,110.98,-45.96
4,idle,698357009.0,7.168,6.637,-2.495,-0.98,0.24,-1.83,110.97,-45.95
4,idle,698362009.0,7.183,6.613,-2.514,-1.1,0.73,-1.95,110.96,-45.93
4,idle,698367009.0,7.168,6.637,-2.567,-1.22,0.79,-2.01,110.96,-45.92
4,idle,698372009.0,7.159,6.627,-2.595,-1.59,0.79,-2.01,110.96,-45.9
4,idle,698377009.0,7.159,6.642,-2.591,-1.89,0.85,-2.01,110.96,-45.88
4,idle,698382009.0,7.096,6.594,-2.6,-2.01,0.73,-1.89,110.96,-45.86
4,idle,698387009.0,7.106,6.579,-2.581,-2.07,0.79,-2.01,110.96,-45.84
4,idle,698392009.0,7.116,6.594,-2.614,-2.26,0.73,-2.01,110.96,-45.82
4,idle,698397009.0,7.101,6.618,-2.547,-2.32,0.79,-2.01,110.95,-45.8
4,idle,698402009.0,7.106,6.613,-2.495,-2.5,0.79,-2.01,110.94,-45.78
4,idle,698407009.0,7.178,6.637,-2.476,-2.68,0.49,-1.89,110.91,-45.77
4,idle,698412009.0,7.187,6.675,-2.514,-2.87,0.67,-1.95,110.89,-45.76
4,idle,698417009.0,7.226,6.665,-2.49,-3.05,0.79,-1.71,110.87,-45.75
4,idle,698422009.0,7.278,6.656,-2.576,-3.23,1.1,-1.59,110.86,-45.74
4,idle,698427009.0,7.288,6.656,-2.571,-3.35,1.59,-1.1,110.85,-45.73
4,idle,698432009.0,7.317,6.579,-2.576,-3.41,2.07,-0.85,110.84,-45.73
4,idle,698437009.0,7.341,6.57,-2.6,-3.48,2.44,-0.55,110.84,-45.72
4,idle,698442009.0,7.355,6.507,-2.538,-3.41,2.5,-0.24,110.83,-45.72
4,idle,698447009.0,7.345,6.517,-2.586,-3.17,2.62,-0.12,110.83,-45.72
4,idle,698452010.0,7.389,6.503,-2.543,-2.8,2.8,0.18,110.83,-45.73
4,idle,698457010.0,7.369,6.536,-2.49,-2.5,2.56,0.0,110.82,-45.73
4,idle,698462010.0,7.398,6.517,-2.523,-2.26,2.32,0.12,110.81,-45.74
4,idle,698467010.0,7.393,6.517,-2.514,-1.89,2.07,0.0,110.81,-45.74
4,idle,698472010.0,7.417,6.551,-2.562,-1.65,1.65,-0.18,110.81,-45.75
4,idle,698477010.0,7.417,6.574,-2.552,-1.4,1.52,-0.43,110.81,-45.76
4,idle,698482010.0,7.446,6.579,-2.519,-1.04,0.91,-0.61,110.81,-45.77
4,idle,698487010.0,7.479,6.555,-2.523,-0.79,0.37,-0.79,110.81,-45.79
4,idle,698492010.0,7.456,6.565,-2.552,-0.24,0.0,-0.91,110.82,-45.81
4,idle,698497010.0,7.479,6.536,-2.619,0.12,-0.43,-0.85,110.84,-45.83
4,idle,698502010.0,7.494,6.584,-2.591,0.49,-0.37,-0.98,110.86,-45.84
4,idle,698507010.0,7.513,6.608,-2.6,1.04,-0.55,-1.04,110.87,-45.86
4,idle,698512010.0,7.556,6.646,-2.538,1.46,-0.79,-1.28,110.88,-45.88
4,idle,698517010.0,7.527,6.665,-2.571,1.83,-0.85,-1.28,110.9,-45.9
4,idle,698522010.0,7.508,6.665,-2.595,2.13,-0.85,-1.65,110.91,-45.91
4,idle,698527010.0,7.451,6.699,-2.562,2.44,-0.79,-1.59,110.93,-45.92
4,idle,698532010.0,7.451,6.728,-2.528,2.68,-0.61,-1.52,110.93,-45.93
4,idle,698537010.0,7.427,6.718,-2.485,2.99,-0.55,-1.52,110.93,-45.93
4,idle,698542010.0,7.417,6.704,-2.567,3.29,-0.49,-1.65,110.95,-45.93
4,idle,698547010.0,7.369,6.752,-2.557,3.54,-0.67,-1.89,110.96,-45.93
4,idle,698552010.0,7.365,6.761,-2.533,3.84,-0.73,-1.95,110.97,-45.93
4,idle,698557010.0,7.317,6.742,-2.571,4.02,-1.04,-1.89,110.99,-45.92
4,idle,698562010.0,7.302,6.718,-2.547,4.33,-1.34,-1.95,111.01,-45.92
4,idle,698567010.0,7.302,6.723,-2.552,4.45,-1.59,-1.95,111.03,-45.92
4,idle,698572010.0,7.298,6.728,-2.557,4.88,-2.13,-2.01,111.05,-45.92
4,idle,698577010.0,7.274,6.728,-2.586,4.88,-2.74,-1.95,111.07,-45.92
4,idle,698582010.0,7.259,6.756,-2.552,5.0,-3.23,-2.07,111.09,-45.92
4,idle,698587010.0,7.23,6.718,-2.581,5.18,-3.78,-1.83,111.11,-45.92
4,idle,698592010.0,7.254,6.761,-2.638,5.12,-4.02,-1.77,111.14,-45.92
4,idle,698597010.0,7.278,6.704,-2.624,5.06,-4.33,-1.52,111.17,-45.93
4,idle,698602010.0,7.278,6.685,-2.619,5.12,-4.57,-1.71,111.2,-45.94
4,idle,698607010.0,7.288,6.646,-2.648,5.0,-5.12,-1.89,111.23,-45.96
4,idle,698612010.0,7.259,6.594,-2.682,4.94,-5.37,-1.95,111.28,-45.98
4,idle,698617010.0,7.245,6.531,-2.677,4.82,-5.73,-1.95,111.32,-46.0
4,idle,698622010.0,7.202,6.56,-2.705,4.7,-5.85,-1.95,111.36,-46.02
4,idle,698627010.0,7.202,6.522,-2.696,4.76,-5.79,-2.01,111.41,-46.04
4,idle,698632010.0,7.202,6.531,-2.696,4.76,-5.79,-2.13,111.45,-46.06
4,idle,698637010.0,7.187,6.56,-2.705,4.63,-5.73,-2.13,111.5,-46.07
4,idle,698642010.0,7.192,6.594,-2.734,4.39,-5.49,-2.26,111.54,-46.08
4,idle,698647010.0,7.135,6.584,-2.725,4.09,-4.94,-1.95,111.58,-46.08
4,idle,698652010.0,7.106,6.598,-2.705,3.78,-4.7,-1.65,111.61,-46.08
4,idle,698657010.0,7.077,6.565,-2.705,3.41,-4.09,-1.52,111.64,-46.08
4,idle,698662010.0,7.005,6.531,-2.739,2.93,-3.72,-0.98,111.68,-46.07
4,idle,698667010.0,6.938,6.512,-2.72,2.68,-3.54,-0.67,111.71,-46.06
4,idle,698672010.0,6.958,6.436,-2.739,2.38,-3.54,-0.37,111.75,-46.05
4,idle,698677010.0,6.919,6.445,-2.715,2.26,-3.84,-0.24,111.78,-46.04
4,idle,698682010.0,6.857,6.436,-2.696,2.13,-4.27,-0.12,111.81,-46.03
4,idle,698687010.0,6.843,6.388,-2.729,2.07,-4.7,0.37,111.85,-46.02
4,idle,698692010.0,6.862,6.421,-2.677,1.89,-4.94,0.79,111.87,-46.02
4,idle,698697010.0,6.895,6.436,-2.696,1.46,-5.06,0.85,111.9,-46.02
4,idle,698702010.0,6.948,6.421,-2.696,1.34,-5.18,0.85,111.92,-46.02
4,idle,698707010.0,6.996,6.431,-2.729,1.16,-5.3,1.04,111.95,-46.03
4,idle,698712010.0,7.015,6.426,-2.696,0.85,-5.37,1.16,111.97,-46.04
4,idle,698717010.0,6.996,6.436,-2.772,0.67,-5.18,1.77,112.0,-46.04
4,idle,698722010.0,7.015,6.416,-2.705,0.43,-4.7,2.38,112.02,-46.05
4,idle,698727010.0,7.02,6.397,-2.701,0.3,-4.21,2.62,112.04,-46.05
4,idle,698732010.0,7.068,6.412,-2.729,0.24,-3.6,2.8,112.06,-46.06
4,idle,698737010.0,7.053,6.431,-2.715,0.3,-3.41,3.11,112.08,-46.06
4,idle,698742010.0,7.063,6.44,-2.71,0.0,-2.87,3.17,112.09,-46.06
4,idle,698747010.0,7.063,6.479,-2.758,-0.06,-2.8,3.41,112.11,-46.05
4,idle,698752010.0,7.034,6.479,-2.768,-0.18,-2.8,4.02,112.13,-46.04
4,idle,698757010.0,7.063,6.464,-2.772,-0.3,-2.5,4.09,112.15,-46.04
4,idle,698762010.0,7.034,6.479,-2.859,-0.55,-2.2,4.33,112.18,-46.02
4,idle,698767010.0,7.015,6.498,-2.801,-0.61,-2.32,4.51,112.2,-46.01
4,idle,698772010.0,7.01,6.479,-2.796,-0.61,-2.32,4.33,112.22,-46.0
4,idle,698777010.0,7.053,6.464,-2.844,-0.67,-2.32,4.15,112.25,-45.99
4,idle,698782010.0,7.02,6.426,-2.854,-0.73,-2.5,4.09,112.28,-45.98
5,idle,702087021.0,7.235,6.378,-2.84,-2.13,2.2,1.71,113.76,-45.64
5,idle,702092021.0,7.226,6.388,-2.849,-2.2,1.89,1.77,113.76,-45.63
5,idle,702097021.0,7.202,6.388,-2.835,-2.2,1.46,1.65,113.75,-45.63
5,idle,702102021.0,7.235,6.383,-2.811,-2.13,0.79,1.65,113.74,-45.63
5,idle,702107021.0,7.25,6.397,-2.792,-2.13,0.43,1.28,113.72,-45.64
5,idle,702112021.0,7.264,6.373,-2.768,-1.95,-0.12,1.22,113.71,-45.65
5,idle,702117021.0,7.321,6.335,-2.825,-2.01,-0.49,1.22,113.71,-45.67
5,idle,702122021.0,7.326,6.359,-2.835,-1.95,-0.55,1.1,113.7,-45.69
5,idle,702127021.0,7.379,6.359,-2.849,-1.95,-0.55,1.22,113.7,-45.71
5,idle,702132021.0,7.417,6.383,-2.844,-1.89,-0.37,1.16,113.7,-45.74
5,idle,702137021.0,7.432,6.402,-2.792,-1.83,0.06,1.1,113.69,-45.76
5,idle,702142021.0,7.422,6.397,-2.806,-1.89,0.67,1.22,113.68,-45.77
5,idle,702147021.0,7.398,6.383,-2.811,-1.59,1.04,1.22,113.67,-45.79
5,idle,702152021.0,7.417,6.388,-2.763,-1.71,1.46,1.4,113.66,-45.8
5,idle,702157021.0,7.374,6.397,-2.849,-1.65,1.89,1.52,113.66,-45.8
5,idle,702162021.0,7.331,6.373,-2.816,-1.52,2.07,1.4,113.65,-45.81
5,idle,702167021.0,7.321,6.369,-2.768,-1.52,2.13,1.46,113.64,-45.81
5,idle,702172021.0,7.326,6.393,-2.782,-1.34,2.13,1.52,113.63,-45.81
5,idle,702177021.0,7.293,6.369,-2.868,-1.46,2.01,1.28,113.64,-45.81
5,idle,702182021.0,7.278,6.407,-2.82,-1.4,1.59,1.22,113.63,-45.81
5,idle,702187021.0,7.274,6.364,-2.835,-1.4,1.1,1.16,113.63,-45.81
5,idle,702192021.0,7.278,6.359,-2.907,-1.4,0.73,1.16,113.65,-45.82
5,idle,702197021.0,7.269,6.383,-2.83,-1.46,0.24,1.04,113.64,-45.82
5,idle,702202021.0,7.312,6.397,-2.878,-1.34,-0.18,0.91,113.65,-45.83
5,idle,702207021.0,7.298,6.388,-2.849,-1.4,-0.49,0.79,113.65,-45.84
5,idle,702212021.0,7.374,6.421,-2.878,-1.28,-0.49,0.85,113.65,-45.85
5,idle,702217021.0,7.384,6.445,-2.873,-1.46,-0.24,0.79,113.65,-45.86
5,idle,702222021.0,7.427,6.455,-2.849,-1.4,0.0,0.73,113.65,-45.87
5,idle,702227021.0,7.412,6.469,-2.883,-1.59,0.49,0.79,113.65,-45.88
5,idle,702232021.0,7.393,6.503,-2.849,-1.71,1.16,0.91,113.64,-45.88
5,idle,702237021.0,7.436,6.445,-2.878,-1.77,1.65,1.16,113.64,-45.88
5,idle,702242021.0,7.408,6.464,-2.854,-1.95,2.01,1.34,113.64,-45.88
5,idle,702247021.0,7.398,6.426,-2.878,-2.07,2.44,1.4,113.64,-45.88
5,idle,702252021.0,7.389,6.412,-2.911,-2.01,2.56,1.22,113.64,-45.88
5,idle,702257021.0,7.369,6.378,-2.854,-1.95,2.5,1.46,113.64,-45.88
5,idle,702262021.0,7.293,6.354,-2.854,-2.13,2.44,1.4,113.64,-45.88
5,idle,702267021.0,7.269,6.325,-2.849,-1.95,1.89,1.22,113.64,-45.88
5,idle,702272021.0,7.298,6.335,-2.892,-1.89,1.59,1.22,113.65,-45.88
5,idle,702277021.0,7.298,6.335,-2.911,-1.65,0.98,1.1,113.66,-45.88
5,idle,702282021.0,7.278,6.325,-2.83,-1.65,0.73,0.91,113.67,-45.89
5,idle,702287021.0,7.293,6.33,-2.863,-1.46,0.24,0.73,113.67,-45.9
5,idle,702292021.0,7.288,6.345,-2.902,-1.52,-0.06,0.61,113.68,-45.91
5,idle,702297021.0,7.326,6.364,-2.907,-1.34,-0.24,0.61,113.69,-45.92
5,idle,702302021.0,7.321,6.383,-2.883,-1.28,-0.24,0.55,113.7,-45.92
5,idle,702307021.0,7.403,6.383,-2.897,-1.22,-0.12,0.73,113.71,-45.94
5,idle,702312021.0,7.365,6.335,-2.863,-1.4,-0.12,0.61,113.71,-45.95
5,idle,702317021.0,7.389,6.316,-2.964,-1.22,0.06,0.85,113.74,-45.97
5,idle,702322021.0,7.365,6.33,-2.916,-1.22,0.18,0.98,113.75,-45.98
5,idle,702327021.0,7.369,6.273,-2.974,-1.34,0.3,1.34,113.78,-45.99
5,idle,702332021.0,7.365,6.311,-2.921,-1.1,0.3,1.52,113.79,-46.0
5,idle,702337021.0,7.365,6.263,-2.94,-1.1,0.24,1.46,113.81,-46.02
5,idle,702342021.0,7.403,6.263,-2.954,-1.04,0.0,1.34,113.84,-46.03
5,idle,702347021.0,7.384,6.278,-2.954,-0.85,0.06,1.34,113.86,-46.05
5,idle,702352021.0,7.379,6.263,-3.002,-0.85,-0.12,1.4,113.89,-46.06
5,idle,702357021.0,7.403,6.321,-2.993,-0.98,-0.3,1.28,113.91,-46.08
5,idle,702362021.0,7.393,6.278,-2.969,-0.98,-0.12,1.28,113.94,-46.09
5,idle,702367021.0,7.408,6.297,-3.012,-0.91,-0.12,1.22,113.97,-46.1
5,idle,702372021.0,7.412,6.378,-2.921,-1.16,-0.18,0.98,113.97,-46.11
5,idle,702377021.0,7.36,6.364,-2.969,-1.04,-0.37,0.98,113.99,-46.12
5,idle,702382021.0,7.389,6.378,-3.002,-1.1,-0.24,1.1,114.01,-46.13
5,idle,702387021.0,7.403,6.402,-2.926,-1.16,-0.18,1.04,114.01,-46.13
5,idle,702392021.0,7.379,6.426,-2.873,-1.16,-0.37,1.04,114.01,-46.14
5,idle,702397021.0,7.384,6.45,-2.892,-1.16,-0.43,0.98,114.01,-46.14
5,idle,702402021.0,7.379,6.498,-2.911,-1.16,-0.55,0.98,114.0,-46.14
5,idle,702407021.0,7.35,6.464,-2.887,-1.34,-0.55,1.16,114.0,-46.15
5,idle,702412021.0,7.384,6.522,-2.873,-1.28,-0.67,1.46,113.99,-46.15
5,idle,702417021.0,7.365,6.493,-2.859,-1.59,-0.79,1.22,113.97,-46.15
5,idle,702422021.0,7.369,6.45,-2.859,-1.71,-0.98,1.28,113.96,-46.15
5,idle,702427021.0,7.365,6.45,-2.878,-1.71,-1.22,1.34,113.96,-46.16
5,idle,702432021.0,7.36,6.464,-2.835,-1.89,-1.46,1.1,113.94,-46.17
5,idle,702437021.0,7.35,6.44,-2.878,-1.95,-1.65,0.91,113.94,-46.18
5,idle,702442021.0,7.393,6.421,-2.892,-2.01,-1.59,0.91,113.93,-46.19
5,idle,702447021.0,7.389,6.436,-2.907,-2.13,-1.65,0.61,113.93,-46.2
5,idle,702452021.0,7.365,6.426,-2.84,-2.32,-1.46,0.61,113.92,-46.21
5,idle,702457021.0,7.398,6.436,-2.868,-2.32,-1.34,0.43,113.91,-46.22
5,idle,702462021.0,7.389,6.402,-2.887,-2.56,-1.04,0.3,113.9,-46.23
5,idle,702467021.0,7.345,6.416,-2.863,-2.56,-0.85,0.3,113.89,-46.24
5,idle,702472021.0,7.36,6.388,-2.84,-2.74,-0.61,0.3,113.88,-46.24
5,idle,702477021.0,7.345,6.383,-2.811,-2.87,-0.55,0.12,113.86,-46.25
5,idle,702482021.0,7.345,6.378,-2.796,-2.99,-0.55,0.0,113.85,-46.26
5,idle,702487021.0,7.345,6.373,-2.835,-3.17,-0.43,0.06,113.83,-46.27
5,idle,702492022.0,7.302,6.354,-2.82,-3.29,-0.67,0.06,113.82,-46.27
5,idle,702497022.0,7.274,6.393,-2.816,-3.23,-0.85,0.06,113.8,-46.27
5,idle,702502022.0,7.254,6.354,-2.777,-3.29,-0.91,0.18,113.78,-46.28
5,idle,702507022.0,7.226,6.359,-2.758,-3.54,-0.79,0.37,113.76,-46.28
5,idle,702512022.0,7.264,6.345,-2.806,-3.54,-0.98,0.43,113.74,-46.29
5,idle,702517022.0,7.264,6.388,-2.744,-3.48,-0.98,0.24,113.72,-46.29
5,idle,702522022.0,7.307,6.373,-2.787,-3.54,-1.1,0.43,113.7,-46.3
5,idle,702527022.0,7.293,6.397,-2.801,-3.54,-0.91,0.49,113.68,-46.3
5,idle,702532022.0,7.293,6.407,-2.816,-3.66,-0.73,0.91,113.66,-46.3
5,idle,702537022.0,7.336,6.373,-2.782,-3.66,-0.43,1.1,113.64,-46.31
5,idle,702542022.0,7.326,6.393,-2.749,-3.9,-0.3,1.16,113.61,-46.31
5,idle,702547022.0,7.345,6.373,-2.739,-3.9,0.0,1.59,113.59,-46.32
5,idle,702552022.0,7.321,6.34,-2.739,-3.72,0.24,1.71,113.57,-46.33
5,idle,702557022.0,7.336,6.34,-2.749,-3.66,0.37,1.71,113.55,-46.33
5,idle,702562022.0,7.336,6.306,-2.763,-3.6,0.37,1.83,113.53,-46.34
5,idle,702567022.0,7.355,6.282,-2.825,-3.54,0.37,1.77,113.53,-46.35
5,idle,702572022.0,7.355,6.263,-2.792,-3.35,-0.12,1.46,113.52,-46.36
5,idle,702577022.0,7.331,6.278,-2.796,-3.29,-0.49,1.52,113.51,-46.37
5,idle,702582022.0,7.341,6.292,-2.825,-3.17,-0.73,1.52,113.51,-46.39
5,idle,702587022.0,7.408,6.302,-2.825,-3.11,-0.98,1.4,113.51,-46.4
5,idle,702592022.0,7.417,6.287,-2.82,-2.99,-0.91,1.22,113.51,-46.42
5,idle,702597022.0,7.441,6.302,-2.811,-2.99,-0.91,0.98,113.5,-46.44
5,idle,702602022.0,7.446,6.316,-2.83,-2.99,-0.73,0.91,113.5,-46.46
5,idle,702607022.0,7.484,6.297,-2.849,-2.99,-0.49,0.91,113.5,-46.48
5,idle,702612022.0,7.489,6.335,-2.897,-2.87,-0.18,1.04,113.51,-46.49
5,idle,702617022.0,7.479,6.335,-2.82,-3.05,0.0,0.91,113.51,-46.5
5,idle,702622022.0,7.456,6.335,-2.878,-2.87,0.43,1.04,113.51,-46.51
5,idle,702627022.0,7.446,6.359,-2.83,-2.8,0.73,1.1,113.51,-46.52
5,idle,702632022.0,7.427,6.349,-2.868,-2.93,0.91,1.22,113.51,-46.52
5,idle,702637022.0,7.412,6.34,-2.782,-2.8,0.98,1.28,113.5,-46.52
5,idle,702642022.0,7.379,6.311,-2.787,-2.8,0.73,0.98,113.49,-46.53
5,idle,702647022.0,7.398,6.335,-2.816,-2.99,0.37,0.85,113.49,-46.53
5,idle,702652022.0,7.341,6.311,-2.763,-2.8,0.0,0.73,113.47,-46.54
5,idle,702657022.0,7.345,6.297,-2.806,-2.8,-0.49,0.98,113.47,-46.54
5,idle,702662022.0,7.374,6.282,-2.825,-2.74,-0.67,0.91,113.47,-46.56
5,idle,702667022.0,7.422,6.321,-2.782,-2.74,-0.91,0.79,113.47,-46.57
5,idle,702672022.0,7.412,6.359,-2.849,-2.68,-0.98,0.73,113.47,-46.58
5,idle,702677022.0,7.432,6.359,-2.801,-2.74,-0.91,0.73,113.46,-46.59
5,idle,702682022.0,7.451,6.354,-2.854,-2.74,-0.73,0.85,113.46,-46.6
5,idle,702687022.0,7.484,6.373,-2.816,-2.87,-0.67,1.04,113.45,-46.61
5,idle,702692022.0,7.518,6.364,-2.878,-2.8,-0.3,0.98,113.46,-46.62
5,idle,702697022.0,7.489,6.349,-2.883,-3.11,-0.06,0.91,113.46,-46.63
5,idle,702702022.0,7.441,6.345,-2.825,-2.87,0.0,1.1,113.46,-46.64
5,idle,702707022.0,7.427,6.335,-2.811,-3.05,0.06,1.22,113.45,-46.65
5,idle,702712022.0,7.417,6.349,-2.83,-2.87,0.24,1.16,113.45,-46.65
5,idle,702717022.0,7.393,6.321,-2.83,-2.74,0.06,1.28,113.45,-46.65
5,idle,702722022.0,7.403,6.316,-2.883,-2.99,0.06,1.16,113.46,-46.66
5,idle,702727022.0,7.403,6.321,-2.84,-2.93,-0.18,1.04,113.46,-46.66
5,idle,702732022.0,7.398,6.306,-2.82,-2.8,-0.37,0.85,113.46,-46.67
5,idle,702737022.0,7.417,6.306,-2.777,-2.8,-0.61,0.73,113.45,-46.68
5,idle,702742022.0,7.393,6.306,-2.792,-2.8,-0.73,0.85,113.44,-46.69
5,idle,702747022.0,7.384,6.369,-2.753,-2.93,-0.79,0.85,113.43,-46.7
5,idle,702752022.0,7.389,6.388,-2.753,-3.05,-0.55,0.85,113.41,-46.7
5,idle,702757022.0,7.384,6.388,-2.772,-2.99,-0.61,0.61,113.4,-46.7
5,idle,702762022.0,7.417,6.407,-2.782,-3.05,-0.61,0.55,113.38,-46.71
5,idle,702767022.0,7.369,6.373,-2.763,-3.05,-0.73,0.55,113.37,-46.71
5,idle,702772022.0,7.393,6.397,-2.72,-3.17,-0.43,0.61,113.35,-46.71
5,idle,702777022.0,7.393,6.436,-2.753,-3.17,-0.3,0.67,113.33,-46.71
5,idle,702782022.0,7.365,6.421,-2.705,-3.41,-0.12,0.73,113.3,-46.71
5,idle,702787022.0,7.389,6.407,-2.701,-3.54,-0.12,0.79,113.28,-46.71
5,idle,702792022.0,7.379,6.402,-2.705,-3.66,-0.3,0.73,113.25,-46.71
5,idle,702797022.0,7.398,6.407,-2.662,-3.78,-0.12,0.73,113.22,-46.72
5,idle,702802022.0,7.374,6.393,-2.682,-3.78,-0.49,0.67,113.19,-46.72
5,idle,702807022.0,7.393,6.349,-2.739,-3.54,-0.67,0.61,113.18,-46.73
5,idle,702812022.0,7.384,6.359,-2.705,-3.66,-0.49,0.55,113.16,-46.73
5,idle,702817022.0,7.393,6.311,-2.763,-3.72,-0.43,0.37,113.15,-46.74
5,idle,702822022.0,7.374,6.321,-2.739,-3.6,-0.55,0.24,113.13,-46.75
5,idle,702827022.0,7.398,6.311,-2.715,-3.48,-0.43,0.18,113.12,-46.76
5,idle,702832022.0,7.412,6.311,-2.715,-3.54,-0.18,0.12,113.11,-46.77
5,idle,702837022.0,7.422,6.34,-2.701,-3.41,0.06,0.0,113.09,-46.77
5,idle,702842022.0,7.427,6.34,-2.715,-3.41,-0.12,0.0,113.07,-46.78
5,idle,702847022.0,7.417,6.354,-2.725,-3.41,-0.06,-0.3,113.06,-46.78
5,idle,702852022.0,7.412,6.369,-2.686,-3.54,-0.24,-0.24,113.04,-46.79
5,idle,702857022.0,7.389,6.369,-2.729,-3.35,-0.06,-0.18,113.03,-46.79
5,idle,702862022.0,7.389,6.388,-2.691,-3.41,-0.06,-0.24,113.01,-46.79
5,idle,702867022.0,7.417,6.402,-2.71,-3.41,-0.06,-0.24,112.99,-46.79
5,idle,702872022.0,7.422,6.402,-2.686,-3.29,-0.12,-0.18,112.97,-46.8
5,idle,702877022.0,7.398,6.397,-2.701,-3.23,-0.06,-0.18,112.95,-46.8
5,idle,702882022.0,7.408,6.407,-2.677,-3.35,-0.12,-0.12,112.93,-46.8
5,idle,702887022.0,7.417,6.412,-2.696,-3.23,-0.12,-0.06,112.91,-46.8
5,idle,702892022.0,7.408,6.412,-2.72,-3.23,0.0,0.12,112.89,-46.8
5,idle,702897022.0,7.427,6.373,-2.72,-3.23,0.24,0.24,112.88,-46.8
5,idle,702902022.0,7.427,6.378,-2.71,-3.11,0.3,0.24,112.87,-46.8
5,idle,702907022.0,7.389,6.364,-2.772,-2.99,0.37,0.3,112.87,-46.8
5,idle,702912022.0,7.379,6.388,-2.729,-2.93,0.37,0.18,112.86,-46.8
5,idle,702917022.0,7.384,6.393,-2.744,-2.87,0.61,0.37,112.85,-46.79
5,idle,702922022.0,7.369,6.388,-2.768,-2.68,0.49,0.12,112.85,-46.79
5,idle,702927022.0,7.389,6.426,-2.734,-2.62,0.37,0.06,112.84,-46.78
5,idle,702932022.0,7.379,6.44,-2.772,-2.44,0.24,-0.12,112.84,-46.78
5,idle,702937022.0,7.384,6.45,-2.753,-2.2,-0.24,-0.18,112.84,-46.77
5,idle,702942022.0,7.398,6.474,-2.715,-2.01,-0.37,-0.18,112.82,-46.77
5,idle,702947022.0,7.379,6.483,-2.705,-2.01,-0.55,-0.43,112.81,-46.76
5,idle,702952022.0,7.389,6.522,-2.729,-1.89,-0.49,-0.55,112.8,-46.76
5,idle,702957022.0,7.412,6.531,-2.749,-1.83,-0.49,-0.55,112.79,-46.75
5,idle,702962022.0,7.412,6.579,-2.715,-1.89,-0.61,-0.67,112.77,-46.74
5,idle,702967022.0,7.446,6.579,-2.705,-1.71,-0.43,-0.67,112.76,-46.73
5,idle,702972022.0,7.422,6.613,-2.796,-1.83,-0.43,-0.61,112.75,-46.72
5,idle,702977022.0,7.446,6.656,-2.734,-1.65,-0.12,-0.79,112.74,-46.71
5,idle,702982022.0,7.456,6.675,-2.801,-1.95,0.12,-0.91,112.73,-46.69
5,idle,702987022.0,7.436,6.632,-2.777,-1.77,0.18,-1.22,112.72,-46.67
5,idle,702992022.0,7.432,6.613,-2.777,-1.83,0.18,-1.34,112.71,-46.66
5,idle,702997022.0,7.422,6.574,-2.782,-1.77,0.3,-1.52,112.71,-46.65
5,idle,703002022.0,7.393,6.584,-2.758,-1.83,0.06,-1.65,112.7,-46.63
5,idle,703007022.0,7.408,6.57,-2.801,-1.89,-0.06,-1.95,112.7,-46.62
5,idle,703012022.0,7.403,6.551,-2.777,-1.95,-0.37,-2.26,112.69,-46.61
5,idle,703017022.0,7.403,6.546,-2.787,-1.95,-0.79,-2.68,112.69,-46.61
5,idle,703022022.0,7.403,6.536,-2.84,-1.95,-1.16,-3.23,112.7,-46.6
5,idle,703027022.0,7.451,6.512,-2.763,-1.89,-1.28,-3.54,112.69,-46.61
5,idle,703032022.0,7.427,6.46,-2.873,-1.71,-1.46,-3.9,112.71,-46.61
5,idle,703037022.0,7.451,6.431,-2.811,-1.71,-1.4,-3.9,112.72,-46.62
5,idle,703042022.0,7.441,6.436,-2.83,-1.59,-1.4,-4.09,112.73,-46.63
5,idle,703047022.0,7.465,6.46,-2.84,-1.4,-1.16,-4.39,112.75,-46.63
5,idle,703052022.0,7.451,6.445,-2.835,-1.46,-1.1,-4.27,112.76,-46.64
5,idle,703057022.0,7.441,6.436,-2.844,-1.4,-0.85,-4.51,112.77,-46.64
5,idle,703062022.0,7.379,6.431,-2.854,-1.46,-0.67,-4.39,112.79,-46.64
5,idle,703067022.0,7.317,6.416,-2.844,-1.46,-0.49,-4.39,112.8,-46.63
5,idle,703072022.0,7.288,6.407,-2.83,-1.22,-0.18,-4.15,112.82,-46.62
5,idle,703077022.0,7.259,6.407,-2.801,-1.28,-0.06,-3.96,112.83,-46.61
5,idle,703082022.0,7.216,6.412,-2.854,-1.34,0.0,-3.78,112.84,-46.6
5,idle,703087023.0,7.192,6.397,-2.82,-1.22,-0.06,-3.66,112.86,-46.58
5,idle,703092023.0,7.168,6.402,-2.849,-1.28,-0.18,-3.6,112.87,-46.56
5,idle,703097023.0,7.192,6.364,-2.796,-1.04,-0.3,-3.35,112.89,-46.55
5,idle,703102023.0,7.178,6.316,-2.772,-1.22,-0.61,-3.05,112.9,-46.55
5,idle,703107023.0,7.183,6.345,-2.825,-1.22,-0.98,-2.87,112.91,-46.54
5,idle,703112023.0,7.183,6.306,-2.84,-1.04,-0.91,-2.74,112.93,-46.54
5,idle,703117023.0,7.216,6.335,-2.792,-1.16,-1.22,-2.62,112.95,-46.53
5,idle,703122023.0,7.221,6.335,-2.849,-0.98,-1.46,-2.44,112.97,-46.53
6,idle,706437043.0,7.365,6.364,-2.844,-0.55,0.73,0.06,112.72,-46.03
6,idle,706442043.0,7.35,6.321,-2.825,-0.55,0.85,0.3,112.74,-46.04
6,idle,706447043.0,7.321,6.316,-2.825,-0.43,0.98,0.3,112.77,-46.05
6,idle,706452043.0,7.331,6.316,-2.811,-0.67,1.1,0.49,112.79,-46.05
6,idle,706457043.0,7.307,6.316,-2.83,-0.49,1.04,0.49,112.81,-46.06
6,idle,706462043.0,7.317,6.302,-2.806,-0.55,0.91,0.49,112.83,-46.07
6,idle,706467043.0,7.269,6.239,-2.849,-0.55,0.43,0.49,112.87,-46.08
6,idle,706472043.0,7.283,6.292,-2.883,-0.43,0.18,0.67,112.9,-46.08
6,idle,706477043.0,7.321,6.268,-2.811,-0.37,0.0,0.67,112.92,-46.1
6,idle,706482043.0,7.312,6.263,-2.873,-0.49,-0.24,0.67,112.95,-46.11
6,idle,706487043.0,7.317,6.278,-2.83,-0.43,-0.37,0.79,112.98,-46.13
6,idle,706492043.0,7.326,6.33,-2.849,-0.49,-0.49,0.55,113.0,-46.14
6,idle,706497043.0,7.326,6.33,-2.892,-0.55,-0.55,0.79,113.03,-46.15
6,idle,706502043.0,7.317,6.311,-2.854,-0.61,-0.37,0.73,113.05,-46.16
6,idle,706507043.0,7.355,6.349,-2.801,-0.67,-0.18,0.91,113.06,-46.17
6,idle,706512043.0,7.355,6.335,-2.835,-0.73,0.12,1.16,113.08,-46.18
6,idle,706517043.0,7.345,6.364,-2.782,-0.67,0.43,1.28,113.09,-46.18
6,idle,706522043.0,7.331,6.369,-2.835,-0.79,0.67,1.52,113.1,-46.18
6,idle,706527043.0,7.345,6.393,-2.763,-0.91,0.98,1.83,113.1,-46.19
6,idle,706532043.0,7.321,6.383,-2.806,-0.91,1.1,1.71,113.11,-46.19
6,idle,706537043.0,7.288,6.378,-2.763,-1.16,1.1,1.89,113.11,-46.18
6,idle,706542043.0,7.264,6.407,-2.787,-1.04,0.98,2.2,113.12,-46.18
6,idle,706547043.0,7.235,6.393,-2.82,-1.16,0.85,2.26,113.12,-46.17
6,idle,706552043.0,7.254,6.388,-2.83,-1.1,0.67,2.13,113.13,-46.16
6,idle,706557043.0,7.259,6.388,-2.83,-0.85,0.61,2.13,113.14,-46.16
6,idle,706562043.0,7.274,6.421,-2.796,-1.1,0.43,1.95,113.15,-46.16
6,idle,706567043.0,7.254,6.455,-2.806,-0.98,0.18,1.83,113.15,-46.15
6,idle,706572043.0,7.269,6.44,-2.782,-1.16,0.06,1.95,113.15,-46.15
6,idle,706577043.0,7.254,6.445,-2.772,-1.04,0.06,1.77,113.15,-46.14
6,idle,706582043.0,7.288,6.445,-2.796,-1.28,0.0,1.77,113.15,-46.14
6,idle,706587043.0,7.283,6.474,-2.749,-1.22,0.24,1.71,113.14,-46.14
6,idle,706592043.0,7.293,6.488,-2.744,-1.34,0.24,1.89,113.13,-46.13
6,idle,706597043.0,7.317,6.507,-2.749,-1.16,0.3,1.89,113.12,-46.13
6,idle,706602043.0,7.331,6.541,-2.739,-1.28,0.37,1.83,113.1,-46.12
6,idle,706607043.0,7.35,6.551,-2.729,-1.4,0.49,1.83,113.08,-46.12
6,idle,706612043.0,7.355,6.522,-2.782,-1.4,0.61,2.13,113.08,-46.11
6,idle,706617043.0,7.35,6.536,-2.744,-1.4,0.67,2.26,113.07,-46.11
6,idle,706622043.0,7.365,6.483,-2.749,-1.46,1.04,2.44,113.06,-46.11
6,idle,706627043.0,7.355,6.493,-2.758,-1.34,1.1,2.32,113.05,-46.1
6,idle,706632043.0,7.379,6.45,-2.777,-1.22,1.34,2.07,113.05,-46.1
6,idle,706637043.0,7.365,6.455,-2.739,-1.28,1.22,2.01,113.04,-46.1
6,idle,706642043.0,7.369,6.426,-2.787,-1.34,1.04,2.01,113.04,-46.11
6,idle,706647043.0,7.393,6.416,-2.763,-1.1,1.04,1.95,113.04,-46.11
6,idle,706652043.0,7.36,6.436,-2.782,-1.04,1.1,1.83,113.04,-46.11
6,idle,706657043.0,7.365,6.416,-2.782,-0.98,1.16,1.59,113.05,-46.11
6,idle,706662043.0,7.35,6.421,-2.739,-0.91,1.16,1.28,113.04,-46.11
6,idle,706667043.0,7.389,6.421,-2.787,-0.98,0.91,0.98,113.05,-46.12
6,idle,706672043.0,7.398,6.426,-2.792,-0.73,0.55,0.55,113.05,-46.12
6,idle,706677043.0,7.355,6.426,-2.758,-0.85,0.43,0.49,113.05,-46.13
6,idle,706682043.0,7.369,6.464,-2.763,-0.61,0.18,0.12,113.05,-46.13
6,idle,706687043.0,7.412,6.474,-2.772,-0.85,0.12,0.12,113.05,-46.14
6,idle,706692043.0,7.408,6.469,-2.763,-0.55,0.12,0.0,113.05,-46.15
6,idle,706697043.0,7.398,6.469,-2.753,-0.67,0.12,-0.06,113.04,-46.15
6,idle,706702043.0,7.408,6.483,-2.787,-0.73,0.18,-0.24,113.05,-46.15
6,idle,706707043.0,7.393,6.483,-2.816,-0.79,0.37,-0.18,113.05,-46.16
6,idle,706712043.0,7.379,6.498,-2.758,-0.79,0.55,-0.24,113.04,-46.16
6,idle,706717043.0,7.389,6.474,-2.768,-0.79,0.85,-0.24,113.04,-46.16
6,idle,706722043.0,7.422,6.479,-2.705,-0.98,0.91,-0.3,113.03,-46.16
6,idle,706727043.0,7.422,6.464,-2.715,-1.1,1.16,-0.37,113.02,-46.16
6,idle,706732043.0,7.379,6.488,-2.806,-1.1,1.28,-0.3,113.02,-46.16
6,idle,706737043.0,7.389,6.464,-2.796,-1.16,1.4,-0.3,113.02,-46.16
6,idle,706742043.0,7.369,6.44,-2.753,-1.52,1.52,-0.3,113.02,-46.15
6,idle,706747043.0,7.35,6.455,-2.782,-1.4,1.4,-0.43,113.02,-46.15
6,idle,706752043.0,7.365,6.455,-2.758,-1.34,1.34,-0.49,113.01,-46.15
6,idle,706757043.0,7.374,6.416,-2.782,-1.52,1.1,-0.49,113.01,-46.15
6,idle,706762043.0,7.384,6.393,-2.801,-1.4,1.1,-0.49,113.02,-46.15
6,idle,706767043.0,7.398,6.388,-2.801,-1.65,0.91,-0.55,113.03,-46.16
6,idle,706772043.0,7.389,6.359,-2.806,-1.59,0.73,-0.55,113.03,-46.17
6,idle,706777043.0,7.389,6.373,-2.825,-1.59,0.61,-0.67,113.04,-46.18
6,idle,706782043.0,7.369,6.33,-2.777,-1.52,0.49,-0.73,113.05,-46.19
6,idle,706787043.0,7.36,6.335,-2.868,-1.52,0.49,-0.73,113.07,-46.19
6,idle,706792043.0,7.36,6.345,-2.863,-1.59,0.85,-0.67,113.08,-46.2
6,idle,706797043.0,7.365,6.359,-2.849,-1.52,0.79,-0.91,113.1,-46.2
6,idle,706802043.0,7.393,6.354,-2.744,-1.46,0.73,-1.04,113.1,-46.21
6,idle,706807043.0,7.341,6.388,-2.729,-1.34,0.79,-1.04,113.09,-46.21
6,idle,706812043.0,7.36,6.44,-2.729,-1.59,0.91,-0.91,113.08,-46.21
6,idle,706817043.0,7.345,6.436,-2.686,-1.77,0.98,-0.55,113.06,-46.21
6,idle,706822043.0,7.365,6.397,-2.734,-1.71,1.04,-0.67,113.06,-46.22
6,idle,706827043.0,7.355,6.426,-2.744,-1.89,0.98,-0.73,113.05,-46.22
6,idle,706832043.0,7.331,6.436,-2.72,-2.07,1.04,-0.73,113.04,-46.22
6,idle,706837043.0,7.355,6.402,-2.772,-2.01,0.85,-0.67,113.03,-46.22
6,idle,706842043.0,7.365,6.393,-2.715,-2.13,0.85,-0.37,113.02,-46.22
6,idle,706847043.0,7.374,6.402,-2.792,-2.01,0.73,-0.24,113.02,-46.23
6,idle,706852043.0,7.36,6.402,-2.782,-2.13,0.73,-0.06,113.02,-46.23
6,idle,706857043.0,7.369,6.378,-2.758,-2.07,0.91,-0.18,113.02,-46.23
6,idle,706862043.0,7.336,6.402,-2.811,-2.2,0.91,-0.06,113.02,-46.23
6,idle,706867043.0,7.326,6.416,-2.768,-1.89,0.85,0.06,113.02,-46.23
6,idle,706872043.0,7.307,6.373,-2.749,-1.83,0.73,0.0,113.02,-46.23
6,idle,706877043.0,7.345,6.383,-2.749,-1.95,0.61,0.12,113.01,-46.23
6,idle,706882043.0,7.293,6.33,-2.734,-2.26,0.55,0.06,113.01,-46.24
6,idle,706887043.0,7.317,6.345,-2.806,-1.89,0.37,-0.06,113.02,-46.24
6,idle,706892043.0,7.345,6.345,-2.739,-2.01,-0.06,-0.3,113.01,-46.25
6,idle,706897043.0,7.331,6.349,-2.787,-1.95,-0.18,-0.37,113.02,-46.26
6,idle,706902043.0,7.336,6.325,-2.768,-1.89,-0.49,-0.3,113.02,-46.27
6,idle,706907043.0,7.355,6.378,-2.777,-1.89,-0.49,-0.06,113.02,-46.28
6,idle,706912043.0,7.365,6.393,-2.82,-1.77,-0.55,-0.18,113.03,-46.29
6,idle,706917043.0,7.384,6.383,-2.792,-1.71,-0.24,0.0,113.03,-46.3
6,idle,706922043.0,7.374,6.431,-2.792,-1.83,-0.06,0.18,113.03,-46.3
6,idle,706927043.0,7.369,6.426,-2.787,-2.07,0.37,0.06,113.03,-46.3
6,idle,706932043.0,7.36,6.421,-2.725,-2.13,0.49,0.3,113.02,-46.3
6,idle,706937043.0,7.365,6.421,-2.772,-2.07,0.73,0.3,113.01,-46.3
6,idle,706942043.0,7.355,6.426,-2.749,-2.32,0.85,0.43,113.01,-46.3
6,idle,706947043.0,7.345,6.416,-2.729,-2.32,0.73,0.49,113.0,-46.3
6,idle,706952043.0,7.312,6.393,-2.744,-2.44,0.73,0.67,112.99,-46.3
6,idle,706957043.0,7.307,6.407,-2.71,-2.32,0.67,0.55,112.98,-46.3
6,idle,706962043.0,7.288,6.397,-2.782,-2.38,0.55,0.61,112.97,-46.3
6,idle,706967043.0,7.283,6.369,-2.792,-2.5,0.37,0.73,112.98,-46.3
6,idle,706972043.0,7.283,6.373,-2.768,-2.26,0.18,0.67,112.98,-46.3
6,idle,706977043.0,7.298,6.393,-2.811,-2.13,-0.18,0.61,112.98,-46.3
6,idle,706982043.0,7.278,6.373,-2.768,-2.26,-0.37,0.67,112.98,-46.3
6,idle,706987043.0,7.302,6.402,-2.772,-2.13,-0.43,0.67,112.98,-46.3
6,idle,706992043.0,7.331,6.402,-2.744,-2.01,-0.3,0.91,112.97,-46.31
6,idle,706997043.0,7.355,6.393,-2.758,-1.95,-0.12,0.79,112.97,-46.31
6,idle,707002043.0,7.331,6.397,-2.744,-2.07,-0.12,0.85,112.96,-46.32
6,idle,707007043.0,7.36,6.416,-2.715,-2.07,0.06,0.98,112.95,-46.32
6,idle,707012043.0,7.302,6.383,-2.691,-2.13,0.12,1.16,112.94,-46.32
6,idle,707017043.0,7.336,6.369,-2.772,-2.13,0.18,1.28,112.94,-46.33
6,idle,707022043.0,7.326,6.34,-2.801,-2.07,0.18,1.52,112.95,-46.33
6,idle,707027043.0,7.336,6.302,-2.715,-2.2,0.24,1.77,112.95,-46.34
6,idle,707032044.0,7.331,6.302,-2.729,-2.13,0.24,1.71,112.95,-46.35
6,idle,707037044.0,7.321,6.335,-2.753,-1.95,0.43,1.95,112.95,-46.36
6,idle,707042044.0,7.302,6.33,-2.763,-1.77,0.37,2.07,112.95,-46.36
6,idle,707047044.0,7.326,6.316,-2.739,-1.89,0.37,2.13,112.95,-46.37
6,idle,707052044.0,7.317,6.369,-2.715,-1.89,0.3,2.07,112.94,-46.37
6,idle,707057044.0,7.321,6.393,-2.672,-1.83,0.24,2.13,112.93,-46.37
6,idle,707062044.0,7.293,6.397,-2.744,-1.89,0.49,2.32,112.93,-46.37
6,idle,707067044.0,7.288,6.407,-2.691,-2.07,0.49,2.56,112.91,-46.37
6,idle,707072044.0,7.307,6.426,-2.677,-1.83,0.98,2.8,112.9,-46.36
6,idle,707077044.0,7.317,6.421,-2.686,-1.89,0.98,2.93,112.89,-46.36
6,idle,707082044.0,7.269,6.412,-2.662,-1.95,0.98,3.05,112.87,-46.35
6,idle,707087044.0,7.293,6.397,-2.715,-1.83,1.04,3.11,112.86,-46.35
6,idle,707092044.0,7.269,6.402,-2.643,-1.95,1.1,3.48,112.84,-46.34
6,idle,707097044.0,7.264,6.393,-2.667,-1.95,1.28,3.84,112.83,-46.34
6,idle,707102044.0,7.259,6.359,-2.696,-1.89,1.34,4.09,112.82,-46.33
6,idle,707107044.0,7.259,6.345,-2.715,-1.83,1.4,4.02,112.82,-46.33
6,idle,707112044.0,7.245,6.321,-2.71,-1.77,1.71,3.84,112.82,-46.32
6,idle,707117044.0,7.254,6.33,-2.667,-1.65,1.59,3.9,112.81,-46.32
6,idle,707122044.0,7.221,6.297,-2.686,-1.59,1.46,3.78,112.81,-46.32
6,idle,707127044.0,7.24,6.325,-2.653,-1.65,1.4,3.84,112.8,-46.31
6,idle,707132044.0,7.226,6.306,-2.658,-1.71,1.34,4.09,112.8,-46.31
6,idle,707137044.0,7.226,6.263,-2.691,-1.59,1.59,4.15,112.8,-46.31
6,idle,707142044.0,7.23,6.335,-2.691,-1.89,1.59,4.02,112.79,-46.31
6,idle,707147044.0,7.221,6.34,-2.677,-1.77,1.83,3.78,112.79,-46.3
6,idle,707152044.0,7.226,6.364,-2.677,-1.83,1.89,4.02,112.78,-46.29
6,idle,707157044.0,7.183,6.397,-2.667,-2.07,2.01,4.27,112.76,-46.27
6,idle,707162044.0,7.183,6.407,-2.6,-2.32,2.26,4.57,112.74,-46.26
6,idle,707167044.0,7.163,6.402,-2.595,-2.5,2.56,4.94,112.71,-46.24
6,idle,707172045.0,7.192,6.44,-2.634,-2.74,2.74,5.18,112.69,-46.22
6,idle,707177045.0,7.235,6.431,-2.682,-2.87,3.17,5.49,112.68,-46.21
6,idle,707182045.0,7.226,6.436,-2.591,-3.11,3.23,5.61,112.65,-46.19
6,idle,707187045.0,7.235,6.46,-2.605,-3.11,3.41,5.85,112.62,-46.17
6,idle,707192046.0,7.254,6.407,-2.691,-3.17,3.66,6.16,112.6,-46.15
6,idle,707197046.0,7.298,6.421,-2.648,-3.35,3.72,6.28,112.58,-46.14
6,idle,707202046.0,7.326,6.373,-2.658,-3.35,3.84,6.52,112.57,-46.13
6,idle,707207046.0,7.317,6.378,-2.739,-3.41,3.9,6.46,112.57,-46.12
6,idle,707212046.0,7.365,6.421,-2.725,-3.11,3.84,6.28,112.56,-46.11
6,idle,707217046.0,7.408,6.407,-2.658,-3.05,3.6,6.1,112.54,-46.11
6,idle,707222046.0,7.427,6.436,-2.682,-2.93,3.41,5.79,112.53,-46.11
6,idle,707227046.0,7.451,6.46,-2.643,-2.93,3.05,5.55,112.51,-46.11
6,idle,707232046.0,7.489,6.479,-2.691,-2.87,2.74,5.37,112.5,-46.11
6,idle,707237046.0,7.494,6.507,-2.667,-3.17,2.56,5.0,112.48,-46.11
6,idle,707242046.0,7.551,6.455,-2.729,-3.11,2.26,4.57,112.47,-46.12
6,idle,707247046.0,7.57,6.517,-2.71,-3.17,1.89,4.39,112.46,-46.13
6,idle,707252046.0,7.609,6.479,-2.72,-3.11,1.83,4.27,112.45,-46.14
6,idle,707257046.0,7.652,6.479,-2.772,-3.05,1.59,3.78,112.45,-46.16
6,idle,707262046.0,7.685,6.474,-2.72,-3.05,1.28,3.54,112.44,-46.18
6,idle,707267046.0,7.724,6.464,-2.677,-3.17,0.98,3.05,112.43,-46.21
6,idle,707272046.0,7.776,6.426,-2.758,-3.11,1.1,2.93,112.43,-46.24
6,idle,707277046.0,7.815,6.393,-2.749,-3.11,1.34,2.62,112.43,-46.27
6,idle,707282046.0,7.824,6.402,-2.782,-3.17,1.65,2.5,112.43,-46.31
6,idle,707287046.0,7.819,6.407,-2.806,-3.11,1.89,2.13,112.44,-46.33
6,idle,707292046.0,7.805,6.373,-2.801,-3.17,2.2,1.65,112.45,-46.36
6,idle,707297046.0,7.796,6.383,-2.777,-3.35,2.26,1.4,112.46,-46.39
6,idle,707302046.0,7.781,6.378,-2.782,-3.48,2.5,0.98,112.46,-46.41
6,idle,707307046.0,7.781,6.364,-2.782,-3.6,2.44,0.67,112.47,-46.44
6,idle,707312046.0,7.748,6.306,-2.777,-3.9,2.38,0.3,112.48,-46.46
6,idle,707317046.0,7.705,6.325,-2.768,-3.78,2.32,0.12,112.48,-46.49
6,idle,707322046.0,7.676,6.34,-2.777,-3.96,2.5,0.24,112.48,-46.5
6,idle,707327046.0,7.628,6.287,-2.772,-3.96,2.62,0.18,112.49,-46.52
6,idle,707332046.0,7.58,6.287,-2.734,-4.02,2.5,-0.06,112.49,-46.54
6,idle,707337046.0,7.547,6.273,-2.701,-4.21,2.56,-0.43,112.49,-46.55
6,idle,707342046.0,7.523,6.249,-2.749,-4.33,2.26,-0.3,112.49,-46.56
6,idle,707347046.0,7.513,6.258,-2.739,-4.39,2.26,-0.37,112.49,-46.57
6,idle,707352046.0,7.499,6.263,-2.682,-4.45,2.38,-0.24,112.48,-46.59
6,idle,707357046.0,7.46,6.22,-2.624,-4.51,2.13,-0.3,112.47,-46.6
6,idle,707362046.0,7.46,6.254,-2.634,-4.33,2.32,-0.3,112.46,-46.61
6,idle,707367046.0,7.451,6.278,-2.653,-4.39,2.32,-0.24,112.44,-46.62
6,idle,707372046.0,7.412,6.268,-2.571,-4.21,2.5,-0.18,112.42,-46.63
6,idle,707377046.0,7.417,6.235,-2.519,-4.27,2.2,-0.18,112.39,-46.64
6,idle,707382046.0,7.398,6.235,-2.562,-4.09,1.95,-0.06,112.37,-46.65
6,idle,707387046.0,7.384,6.22,-2.614,-3.9,1.71,-0.06,112.36,-46.66
6,idle,707392046.0,7.417,6.201,-2.557,-3.72,1.59,-0.06,112.34,-46.68
6,idle,707397046.0,7.398,6.196,-2.571,-3.78,1.34,0.43,112.33,-46.69
6,idle,707402046.0,7.417,6.182,-2.634,-3.23,1.1,0.49,112.33,-46.71
6,idle,707407046.0,7.374,6.177,-2.605,-3.11,0.98,0.67,112.32,-46.73
6,idle,707412046.0,7.384,6.177,-2.557,-2.74,0.73,0.79,112.31,-46.74
6,idle,707417046.0,7.379,6.172,-2.672,-2.68,0.55,1.04,112.32,-46.76
6,idle,707422046.0,7.374,6.172,-2.581,-2.62,0.49,0.98,112.31,-46.78
6,idle,707427046.0,7.393,6.182,-2.619,-2.44,0.24,1.1,112.32,-46.8
6,idle,707432046.0,7.417,6.153,-2.624,-2.44,0.0,1.28,112.32,-46.82
6,idle,707437046.0,7.417,6.139,-2.662,-2.2,0.37,1.4,112.33,-46.84
6,idle,707442047.0,7.432,6.172,-2.538,-2.07,0.24,1.65,112.32,-46.86
6,idle,707447047.0,7.427,6.187,-2.619,-2.01,0.3,1.52,112.32,-46.88
6,idle,707452048.0,7.451,6.191,-2.591,-1.95,0.61,1.71,112.32,-46.9
6,idle,707457048.0,7.475,6.22,-2.619,-2.2,0.79,2.01,112.32,-46.92
6,idle,707462049.0,7.456,6.254,-2.619,-2.07,1.1,2.13,112.32,-46.93
6,idle,707467049.0,7.465,6.263,-2.624,-2.2,1.46,2.26,112.32,-46.94
7,idle,710752061.0,7.369,6.56,-2.71,-2.26,2.01,1.28,111.61,-45.9
7,idle,710757061.0,7.398,6.56,-2.691,-2.26,1.95,1.16,111.61,-45.9
7,idle,710762062.0,7.412,6.574,-2.729,-2.07,1.77,0.91,111.62,-45.9
7,idle,710767062.0,7.389,6.598,-2.734,-2.07,1.59,0.55,111.63,-45.89
7,idle,710772062.0,7.374,6.608,-2.777,-1.89,1.71,0.3,111.64,-45.88
7,idle,710777062.0,7.384,6.637,-2.801,-1.83,1.77,0.12,111.66,-45.87
7,idle,710782062.0,7.408,6.622,-2.768,-1.65,1.65,-0.06,111.67,-45.86
7,idle,710787063.0,7.36,6.656,-2.763,-1.65,1.77,-0.18,111.68,-45.85
7,idle,710792063.0,7.365,6.656,-2.72,-1.59,1.89,-0.49,111.68,-45.84
7,idle,710797063.0,7.36,6.694,-2.782,-1.52,1.89,-0.49,111.69,-45.82
7,idle,710802063.0,7.326,6.689,-2.816,-1.59,1.65,-0.49,111.71,-45.8
7,idle,710807063.0,7.298,6.699,-2.811,-1.71,1.52,-0.85,111.72,-45.78
7,idle,710812063.0,7.307,6.728,-2.926,-1.71,1.46,-0.85,111.75,-45.75
7,idle,710817063.0,7.254,6.68,-2.863,-1.77,1.1,-1.16,111.77,-45.73
7,idle,710822064.0,7.288,6.656,-2.811,-1.89,0.79,-0.98,111.78,-45.72
7,idle,710827064.0,7.298,6.637,-2.873,-1.65,0.24,-1.16,111.81,-45.71
7,idle,710832064.0,7.269,6.656,-2.897,-1.46,-0.06,-1.1,111.83,-45.69
7,idle,710837064.0,7.293,6.651,-2.887,-1.52,-0.55,-1.71,111.86,-45.69
7,idle,710842064.0,7.312,6.689,-2.897,-1.34,-0.85,-1.77,111.88,-45.68
7,idle,710847064.0,7.307,6.675,-2.897,-1.65,-1.22,-1.83,111.91,-45.67
7,idle,710852064.0,7.293,6.651,-2.921,-1.71,-1.46,-1.83,111.93,-45.67
7,idle,710857064.0,7.326,6.646,-2.892,-1.77,-1.34,-1.89,111.96,-45.67
7,idle,710862064.0,7.336,6.632,-2.945,-1.77,-1.1,-2.07,111.99,-45.67
7,idle,710867064.0,7.336,6.632,-2.921,-2.01,-0.98,-2.2,112.01,-45.67
7,idle,710872064.0,7.312,6.584,-2.916,-1.95,-0.73,-2.32,112.04,-45.66
7,idle,710877064.0,7.288,6.632,-2.878,-2.13,-0.3,-2.26,112.06,-45.66
7,idle,710882064.0,7.278,6.622,-2.849,-2.07,-0.24,-2.01,112.07,-45.65
7,idle,710887064.0,7.254,6.603,-2.811,-2.13,-0.37,-2.07,112.08,-45.65
7,idle,710892064.0,7.25,6.579,-2.887,-2.44,-0.49,-2.07,112.1,-45.64
7,idle,710897064.0,7.216,6.565,-2.849,-2.68,-0.61,-1.95,112.12,-45.64
7,idle,710902064.0,7.159,6.579,-2.825,-2.62,-0.73,-1.83,112.13,-45.63
7,idle,710907064.0,7.183,6.546,-2.782,-2.68,-1.04,-1.95,112.13,-45.62
7,idle,710912064.0,7.135,6.574,-2.772,-2.87,-1.22,-1.89,112.13,-45.62
7,idle,710917064.0,7.13,6.618,-2.734,-2.8,-1.52,-2.07,112.12,-45.61
7,idle,710922064.0,7.168,6.594,-2.686,-2.93,-1.83,-2.07,112.11,-45.61
7,idle,710927064.0,7.163,6.584,-2.705,-3.11,-2.01,-2.01,112.1,-45.61
7,idle,710932064.0,7.149,6.565,-2.682,-3.41,-2.13,-2.01,112.09,-45.62
7,idle,710937064.0,7.168,6.574,-2.677,-3.41,-2.26,-2.13,112.07,-45.62
7,idle,710942064.0,7.211,6.57,-2.682,-3.48,-2.32,-1.89,112.06,-45.63
7,idle,710947064.0,7.202,6.57,-2.672,-3.78,-2.13,-1.95,112.04,-45.63
7,idle,710952064.0,7.23,6.551,-2.686,-3.72,-2.26,-1.83,112.03,-45.65
7,idle,710957064.0,7.235,6.517,-2.662,-3.84,-2.38,-2.01,112.01,-45.66
7,idle,710962064.0,7.211,6.512,-2.648,-3.9,-2.5,-2.01,111.99,-45.67
7,idle,710967064.0,7.221,6.551,-2.614,-4.02,-2.5,-1.95,111.97,-45.69
7,idle,710972064.0,7.226,6.536,-2.677,-4.21,-2.68,-2.01,111.96,-45.7
7,idle,710977064.0,7.235,6.565,-2.614,-4.39,-2.5,-1.83,111.93,-45.71
7,idle,710982064.0,7.221,6.522,-2.562,-4.33,-2.44,-1.89,111.9,-45.72
7,idle,710987064.0,7.221,6.541,-2.634,-4.45,-2.32,-1.89,111.88,-45.74
7,idle,710992064.0,7.24,6.536,-2.61,-4.39,-1.89,-1.89,111.85,-45.75
7,idle,710997064.0,7.254,6.551,-2.658,-4.82,-1.59,-1.65,111.83,-45.75
7,idle,711002064.0,7.159,6.503,-2.629,-4.76,-1.28,-1.4,111.81,-45.76
7,idle,711007064.0,7.149,6.512,-2.624,-4.82,-0.98,-0.91,111.79,-45.76
7,idle,711012064.0,7.135,6.517,-2.567,-5.12,-0.73,-0.67,111.76,-45.76
7,idle,711017064.0,7.087,6.512,-2.547,-5.18,-0.61,-0.24,111.73,-45.75
7,idle,711022064.0,7.077,6.517,-2.624,-5.43,-0.55,0.0,111.71,-45.74
7,idle,711027064.0,7.058,6.498,-2.682,-5.61,-0.91,0.3,111.69,-45.73
7,idle,711032064.0,6.991,6.503,-2.715,-5.91,-1.34,0.61,111.68,-45.72
7,idle,711037064.0,6.986,6.512,-2.806,-6.1,-1.83,1.04,111.69,-45.71
7,idle,711042064.0,6.981,6.479,-2.792,-6.34,-2.01,1.46,111.69,-45.7
7,idle,711047064.0,6.948,6.46,-2.768,-6.46,-2.38,1.89,111.69,-45.69
7,idle,711052064.0,6.943,6.44,-2.739,-6.52,-2.56,2.26,111.68,-45.68
7,idle,711057064.0,6.991,6.474,-2.71,-6.77,-2.93,2.5,111.67,-45.68
7,idle,711062064.0,6.967,6.531,-2.705,-6.83,-2.68,3.11,111.65,-45.67
7,idle,711067064.0,6.986,6.555,-2.658,-6.89,-2.5,3.41,111.63,-45.66
7,idle,711072064.0,7.034,6.551,-2.72,-7.26,-2.01,3.96,111.61,-45.66
7,idle,711077064.0,7.082,6.527,-2.715,-7.38,-1.34,4.7,111.59,-45.65
7,idle,711082064.0,7.106,6.551,-2.758,-7.5,-0.67,5.18,111.58,-45.64
7,idle,711087064.0,7.116,6.517,-2.763,-7.32,0.24,5.49,111.57,-45.63
7,idle,711092064.0,7.159,6.479,-2.777,-7.38,1.1,6.28,111.57,-45.62
7,idle,711097064.0,7.125,6.479,-2.801,-7.13,1.83,6.4,111.57,-45.6
7,idle,711102064.0,7.14,6.483,-2.758,-6.77,2.26,6.77,111.57,-45.59
7,idle,711107064.0,7.183,6.483,-2.729,-6.46,2.32,6.77,111.56,-45.58
7,idle,711112064.0,7.197,6.455,-2.705,-6.1,1.89,6.77,111.55,-45.57
7,idle,711117064.0,7.254,6.464,-2.677,-5.49,1.1,6.77,111.55,-45.58
7,idle,711122064.0,7.264,6.431,-2.672,-5.18,0.24,6.52,111.54,-45.59
7,idle,711127064.0,7.321,6.431,-2.696,-4.63,-0.67,6.22,111.54,-45.61
7,idle,711132064.0,7.408,6.469,-2.638,-4.02,-1.71,5.98,111.54,-45.64
7,idle,711137064.0,7.475,6.479,-2.686,-3.54,-2.68,5.43,111.54,-45.67
7,idle,711142064.0,7.537,6.512,-2.677,-3.05,-3.66,5.0,111.54,-45.72
7,idle,711147064.0,7.594,6.493,-2.677,-2.62,-4.7,4.33,111.54,-45.77
7,idle,711152064.0,7.671,6.551,-2.658,-1.89,-5.0,3.96,111.55,-45.83
7,idle,711157064.0,7.7,6.551,-2.653,-1.34,-5.18,3.35,111.55,-45.89
7,idle,711162064.0,7.733,6.574,-2.624,-1.04,-5.12,2.93,111.55,-45.94
7,idle,711167064.0,7.748,6.574,-2.614,-0.61,-4.7,2.56,111.55,-46.0
7,idle,711172064.0,7.733,6.613,-2.629,-0.24,-4.15,2.26,111.55,-46.05
7,idle,711177064.0,7.724,6.651,-2.634,-0.06,-3.66,1.95,111.55,-46.09
7,idle,711182064.0,7.657,6.694,-2.624,0.06,-2.68,1.34,111.55,-46.12
7,idle,711187064.0,7.623,6.732,-2.614,0.18,-2.13,1.28,111.54,-46.13
7,idle,711192064.0,7.547,6.728,-2.648,0.24,-1.59,0.85,111.54,-46.14
7,idle,711197064.0,7.46,6.728,-2.648,0.3,-1.4,0.73,111.54,-46.15
7,idle,711202064.0,7.389,6.761,-2.648,0.3,-1.59,0.3,111.54,-46.14
7,idle,711207064.0,7.302,6.761,-2.6,0.37,-1.77,0.24,111.53,-46.13
7,idle,711212064.0,7.259,6.776,-2.614,0.24,-2.07,-0.06,111.52,-46.12
7,idle,711217064.0,7.173,6.737,-2.581,0.37,-2.74,-0.3,111.52,-46.11
7,idle,711222064.0,7.154,6.742,-2.653,0.3,-3.17,-0.49,111.52,-46.09
7,idle,711227064.0,7.116,6.742,-2.648,0.3,-3.72,-0.79,111.52,-46.08
7,idle,711232064.0,7.12,6.728,-2.667,0.12,-4.02,-0.79,111.52,-46.07
7,idle,711237064.0,7.101,6.709,-2.729,0.06,-4.45,-0.79,111.53,-46.06
7,idle,711242064.0,7.096,6.699,-2.691,-0.18,-4.45,-0.85,111.54,-46.05
7,idle,711247064.0,7.135,6.685,-2.653,-0.43,-4.21,-0.91,111.54,-46.04
7,idle,711252064.0,7.149,6.67,-2.686,-0.49,-3.84,-0.85,111.54,-46.04
7,idle,711257064.0,7.13,6.642,-2.696,-0.55,-3.54,-0.98,111.55,-46.03
7,idle,711262064.0,7.135,6.656,-2.672,-0.85,-3.48,-0.91,111.55,-46.02
7,idle,711267065.0,7.125,6.646,-2.696,-1.1,-3.35,-0.73,111.56,-46.02
7,idle,711272065.0,7.087,6.594,-2.643,-1.22,-2.87,-0.55,111.56,-46.01
7,idle,711277065.0,7.082,6.56,-2.705,-1.34,-2.99,-0.67,111.57,-46.0
7,idle,711282065.0,7.12,6.56,-2.691,-1.52,-2.68,-0.49,111.58,-46.0
7,idle,711287065.0,7.13,6.565,-2.629,-1.77,-2.68,-0.43,111.57,-46.0
7,idle,711292065.0,7.12,6.551,-2.648,-1.65,-2.68,-0.61,111.57,-45.99
7,idle,711297065.0,7.096,6.551,-2.691,-1.83,-2.68,-0.18,111.58,-45.99
7,idle,711302065.0,7.144,6.56,-2.629,-1.77,-2.62,-0.3,111.58,-45.99
7,idle,711307065.0,7.125,6.517,-2.686,-1.83,-2.5,-0.12,111.58,-45.99
7,idle,711312065.0,7.154,6.522,-2.662,-1.95,-2.01,0.12,111.59,-45.98
7,idle,711317065.0,7.135,6.474,-2.691,-1.89,-2.07,0.3,111.6,-45.99
7,idle,711322065.0,7.168,6.503,-2.715,-1.77,-1.59,0.43,111.61,-45.98
7,idle,711327065.0,7.149,6.488,-2.725,-1.77,-1.46,0.73,111.62,-45.98
7,idle,711332065.0,7.116,6.46,-2.686,-1.71,-1.34,0.79,111.64,-45.98
7,idle,711337065.0,7.111,6.431,-2.662,-1.4,-1.4,0.79,111.65,-45.98
7,idle,711342065.0,7.13,6.455,-2.734,-1.52,-1.46,0.79,111.66,-45.97
7,idle,711347065.0,7.144,6.445,-2.686,-1.65,-1.65,0.85,111.68,-45.97
7,idle,711352065.0,7.144,6.445,-2.648,-1.4,-1.95,0.55,111.68,-45.98
7,idle,711357065.0,7.13,6.421,-2.648,-1.4,-2.26,0.55,111.69,-45.99
7,idle,711362065.0,7.178,6.44,-2.691,-1.22,-2.44,0.3,111.7,-45.99
7,idle,711367065.0,7.202,6.474,-2.682,-1.16,-2.38,0.43,111.71,-46.0
7,idle,711372065.0,7.254,6.474,-2.629,-1.22,-2.26,0.37,111.72,-46.01
7,idle,711377065.0,7.288,6.483,-2.72,-1.16,-2.01,0.49,111.73,-46.02
7,idle,711382065.0,7.317,6.498,-2.691,-1.34,-1.59,0.43,111.74,-46.03
7,idle,711387065.0,7.298,6.479,-2.725,-1.04,-1.1,0.67,111.76,-46.04
7,idle,711392065.0,7.283,6.474,-2.734,-1.1,-0.49,0.73,111.77,-46.04
7,idle,711397065.0,7.288,6.488,-2.72,-0.98,-0.18,0.85,111.79,-46.04
7,idle,711402065.0,7.235,6.493,-2.739,-1.1,0.06,0.85,111.8,-46.04
7,idle,711407065.0,7.192,6.493,-2.696,-0.85,0.3,0.98,111.81,-46.03
7,idle,711412065.0,7.192,6.474,-2.753,-0.79,0.61,1.16,111.84,-46.02
7,idle,711417066.0,7.173,6.464,-2.701,-0.67,0.49,1.04,111.85,-46.01
7,idle,711422066.0,7.168,6.488,-2.72,-0.37,0.18,1.16,111.86,-46.0
7,idle,711427066.0,7.168,6.488,-2.725,-0.55,-0.06,1.1,111.88,-45.99
7,idle,711432066.0,7.187,6.464,-2.686,-0.37,-0.3,1.4,111.89,-45.98
7,idle,711437066.0,7.173,6.44,-2.753,-0.12,-0.3,1.59,111.92,-45.98
7,idle,711442066.0,7.202,6.455,-2.772,0.12,-0.37,1.52,111.94,-45.98
7,idle,711447066.0,7.207,6.498,-2.734,0.24,-0.37,1.71,111.96,-45.97
7,idle,711452066.0,7.24,6.464,-2.768,0.49,-0.18,1.59,111.99,-45.97
7,idle,711457066.0,7.25,6.512,-2.753,0.55,-0.18,1.52,112.01,-45.97
7,idle,711462066.0,7.274,6.507,-2.749,0.85,-0.37,1.52,112.03,-45.96
7,idle,711467066.0,7.259,6.488,-2.744,0.91,-0.3,1.52,112.05,-45.96
7,idle,711472067.0,7.25,6.503,-2.729,1.04,-0.06,1.59,112.07,-45.96
7,idle,711477067.0,7.264,6.498,-2.787,1.04,-0.18,1.71,112.1,-45.96
7,idle,711482067.0,7.259,6.464,-2.744,1.22,0.12,1.65,112.13,-45.96
7,idle,711487067.0,7.226,6.531,-2.83,1.34,0.18,1.59,112.16,-45.95
7,idle,711492067.0,7.211,6.512,-2.83,1.52,0.37,1.59,112.19,-45.93
7,idle,711497067.0,7.211,6.541,-2.772,1.59,0.49,1.4,112.22,-45.92
7,idle,711502067.0,7.192,6.536,-2.835,1.89,0.37,1.4,112.25,-45.91
7,idle,711507067.0,7.221,6.517,-2.763,1.83,0.49,1.4,112.27,-45.9
7,idle,711512067.0,7.178,6.546,-2.83,1.89,0.61,1.52,112.3,-45.88
7,idle,711517067.0,7.135,6.584,-2.806,1.95,0.85,1.4,112.33,-45.86
7,idle,711522067.0,7.163,6.608,-2.806,2.07,0.61,1.22,112.35,-45.84
7,idle,711527067.0,7.149,6.579,-2.82,1.89,0.55,1.1,112.38,-45.82
7,idle,711532067.0,7.12,6.632,-2.83,1.95,0.12,1.1,112.4,-45.79
7,idle,711537067.0,7.149,6.618,-2.777,1.89,0.12,1.16,112.42,-45.77
7,idle,711542067.0,7.168,6.622,-2.811,1.77,-0.06,1.22,112.44,-45.76
7,idle,711547067.0,7.221,6.589,-2.801,1.65,-0.43,0.98,112.46,-45.75
7,idle,711552067.0,7.207,6.627,-2.82,1.59,-0.43,0.73,112.48,-45.73
7,idle,711557067.0,7.23,6.613,-2.844,1.46,-0.3,0.67,112.5,-45.72
7,idle,711562067.0,7.25,6.637,-2.859,1.34,-0.3,0.55,112.53,-45.71
7,idle,711567067.0,7.283,6.651,-2.84,1.28,-0.12,0.61,112.54,-45.7
7,idle,711572067.0,7.326,6.642,-2.911,1.1,-0.06,0.43,112.57,-45.7
7,idle,711577067.0,7.307,6.613,-2.873,1.04,0.24,0.18,112.6,-45.69
7,idle,711582067.0,7.326,6.651,-2.84,0.85,0.79,0.12,112.61,-45.68
7,idle,711587067.0,7.331,6.622,-2.883,0.79,1.28,0.24,112.63,-45.67
7,idle,711592067.0,7.317,6.574,-2.887,0.49,1.65,0.0,112.66,-45.66
7,idle,711597067.0,7.283,6.594,-2.859,0.61,2.01,0.0,112.67,-45.64
7,idle,711602067.0,7.25,6.613,-2.863,0.55,2.38,0.06,112.69,-45.62
7,idle,711607067.0,7.226,6.608,-2.878,0.49,2.68,-0.06,112.71,-45.6
7,idle,711612067.0,7.192,6.584,-2.897,0.3,2.56,-0.12,112.73,-45.57
7,idle,711617067.0,7.192,6.618,-2.863,0.61,2.38,-0.3,112.75,-45.55
7,idle,711622067.0,7.149,6.608,-2.84,0.49,2.44,-0.37,112.76,-45.52
7,idle,711627067.0,7.116,6.594,-2.82,0.43,2.26,-0.37,112.77,-45.49
7,idle,711632067.0,7.13,6.589,-2.878,0.55,1.95,-0.49,112.79,-45.47
7,idle,711637067.0,7.116,6.551,-2.849,0.61,1.83,-0.43,112.81,-45.45
7,idle,711642067.0,7.14,6.541,-2.873,0.73,1.52,-0.43,112.83,-45.43
7,idle,711647067.0,7.125,6.56,-2.825,0.67,1.28,-0.61,112.84,-45.42
7,idle,711652067.0,7.13,6.565,-2.892,0.67,1.16,-0.55,112.86,-45.4
7,idle,711657067.0,7.168,6.527,-2.883,0.79,1.16,-0.55,112.89,-45.39
7,idle,711662067.0,7.144,6.551,-2.887,0.85,1.04,-0.37,112.91,-45.37
7,idle,711667068.0,7.173,6.531,-2.863,1.04,1.04,-0.37,112.93,-45.36
7,idle,711672068.0,7.202,6.522,-2.907,1.1,1.16,-0.61,112.96,-45.36
7,idle,711677068.0,7.197,6.541,-2.907,0.91,1.28,-0.37,112.98,-45.35
7,idle,711682068.0,7.221,6.512,-2.863,0.98,1.46,-0.24,113.0,-45.34
7,idle,711687068.0,7.187,6.517,-2.916,1.1,1.71,-0.12,113.03,-45.33
7,idle,711692068.0,7.211,6.546,-2.854,0.98,1.59,0.0,113.04,-45.32
7,idle,711697068.0,7.207,6.522,-2.935,0.91,1.83,0.0,113.07,-45.31
7,idle,711702068.0,7.192,6.469,-2.916,0.98,1.83,0.06,113.1,-45.3
7,idle,711707068.0,7.235,6.488,-2.921,0.85,1.59,-0.06,113.13,-45.3
7,idle,711712068.0,7.254,6.522,-2.916,0.79,1.65,-0.06,113.15,-45.29
7,idle,711717068.0,7.254,6.531,-2.926,0.91,1.28,-0.06,113.18,-45.29
7,idle,711722068.0,7.24,6.517,-2.883,0.67,1.22,0.0,113.19,-45.29
7,idle,711727068.0,7.283,6.474,-2.897,0.55,0.85,-0.12,113.21,-45.29
7,idle,711732068.0,7.307,6.474,-2.878,0.55,0.61,0.12,113.23,-45.3
7,idle,711737068.0,7.302,6.488,-2.897,0.3,0.37,0.0,113.25,-45.31
7,idle,711742068.0,7.345,6.483,-2.926,0.3,0.24,-0.06,113.27,-45.32
7,idle,711747068.0,7.336,6.488,-2.902,0.12,0.06,-0.37,113.29,-45.33
7,idle,711752068.0,7.355,6.488,-2.897,0.06,0.06,-0.3,113.3,-45.34
7,idle,711757068.0,7.326,6.483,-2.883,0.0,0.24,-0.24,113.32,-45.35
8,idle,715132089.0,7.475,6.373,-2.638,-1.83,-0.55,0.06,112.37,-47.4
8,idle,715137089.0,7.456,6.364,-2.658,-2.13,-0.61,0.3,112.36,-47.4
8,idle,715142089.0,7.47,6.378,-2.605,-2.32,-0.49,0.61,112.35,-47.4
8,idle,715147089.0,7.456,6.349,-2.624,-2.32,-0.49,0.67,112.34,-47.4
8,idle,715152089.0,7.479,6.354,-2.648,-2.44,-0.37,0.79,112.33,-47.4
8,idle,715157089.0,7.451,6.349,-2.672,-2.5,-0.3,0.85,112.33,-47.4
8,idle,715162089.0,7.465,6.316,-2.677,-2.62,-0.3,1.1,112.33,-47.4
8,idle,715167089.0,7.46,6.316,-2.619,-2.56,-0.18,1.28,112.32,-47.4
8,idle,715172090.0,7.489,6.311,-2.629,-2.68,0.0,1.22,112.32,-47.41
8,idle,715177090.0,7.494,6.278,-2.614,-2.74,-0.18,1.1,112.31,-47.42
8,idle,715182090.0,7.513,6.263,-2.586,-2.74,-0.24,1.34,112.3,-47.43
8,idle,715187090.0,7.489,6.244,-2.591,-2.87,-0.18,1.22,112.29,-47.44
8,idle,715192090.0,7.475,6.182,-2.543,-2.74,-0.3,1.22,112.28,-47.46
8,idle,715197090.0,7.532,6.196,-2.629,-2.74,-0.18,1.34,112.28,-47.47
8,idle,715202090.0,7.532,6.211,-2.6,-2.8,-0.43,1.16,112.27,-47.49
8,idle,715207090.0,7.542,6.177,-2.557,-2.5,-0.37,1.04,112.26,-47.51
8,idle,715212090.0,7.542,6.211,-2.557,-2.38,-0.49,0.98,112.25,-47.53
8,idle,715217090.0,7.551,6.206,-2.528,-2.26,-0.49,0.98,112.24,-47.55
8,idle,715222090.0,7.532,6.211,-2.595,-2.38,-0.43,1.28,112.24,-47.56
8,idle,715227090.0,7.532,6.239,-2.552,-2.07,0.06,1.52,112.23,-47.58
8,idle,715232090.0,7.542,6.254,-2.538,-2.07,0.37,1.4,112.22,-47.59
8,idle,715237090.0,7.508,6.273,-2.576,-2.07,0.55,1.34,112.21,-47.59
8,idle,715242090.0,7.475,6.287,-2.538,-2.07,0.67,1.52,112.19,-47.59
8,idle,715247090.0,7.46,6.258,-2.576,-2.07,0.79,1.65,112.19,-47.59
8,idle,715252090.0,7.441,6.263,-2.514,-2.13,0.61,1.77,112.17,-47.59
8,idle,715257090.0,7.412,6.282,-2.547,-2.07,0.55,1.83,112.16,-47.59
8,idle,715262090.0,7.422,6.249,-2.605,-1.89,0.43,2.01,112.16,-47.59
8,idle,715267090.0,7.408,6.268,-2.614,-2.13,0.06,2.13,112.16,-47.58
8,idle,715272090.0,7.427,6.249,-2.643,-2.01,0.06,1.95,112.16,-47.58
8,idle,715277090.0,7.451,6.239,-2.543,-2.01,-0.24,1.83,112.15,-47.59
8,idle,715282090.0,7.451,6.22,-2.61,-1.95,-0.73,1.83,112.16,-47.6
8,idle,715287090.0,7.47,6.225,-2.61,-2.2,-0.91,1.77,112.16,-47.61
8,idle,715292090.0,7.508,6.225,-2.638,-2.07,-0.85,1.77,112.16,-47.62
8,idle,715297090.0,7.527,6.239,-2.591,-2.2,-0.67,1.71,112.16,-47.63
8,idle,715302090.0,7.551,6.268,-2.6,-2.26,-0.3,1.71,112.16,-47.64
8,idle,715307090.0,7.542,6.235,-2.571,-2.32,0.0,1.83,112.15,-47.66
8,idle,715312090.0,7.566,6.263,-2.629,-2.32,0.18,1.59,112.15,-47.66
8,idle,715317090.0,7.542,6.278,-2.614,-2.44,0.61,1.77,112.15,-47.67
8,idle,715322090.0,7.513,6.278,-2.605,-2.32,1.16,2.13,112.14,-47.66
8,idle,715327090.0,7.532,6.268,-2.624,-2.44,1.71,2.13,112.14,-47.66
8,idle,715332090.0,7.456,6.292,-2.629,-2.32,1.95,2.38,112.14,-47.65
8,idle,715337090.0,7.451,6.311,-2.547,-2.32,2.13,2.5,112.13,-47.64
8,idle,715342090.0,7.412,6.325,-2.576,-2.2,2.07,2.5,112.12,-47.62
8,idle,715347090.0,7.393,6.33,-2.595,-2.26,1.89,2.5,112.11,-47.61
8,idle,715352090.0,7.365,6.34,-2.595,-2.26,1.65,2.56,112.1,-47.59
8,idle,715357090.0,7.35,6.34,-2.591,-2.07,1.16,2.68,112.1,-47.57
8,idle,715362090.0,7.355,6.335,-2.61,-1.95,0.55,2.5,112.09,-47.56
8,idle,715367090.0,7.384,6.33,-2.557,-1.95,0.06,2.38,112.08,-47.55
8,idle,715372090.0,7.441,6.325,-2.576,-1.65,-0.3,2.13,112.07,-47.55
8,idle,715377090.0,7.451,6.325,-2.6,-1.4,-0.73,1.95,112.07,-47.55
8,idle,715382090.0,7.532,6.335,-2.672,-1.52,-1.16,1.65,112.08,-47.56
8,idle,715387090.0,7.542,6.369,-2.653,-1.34,-1.04,1.46,112.08,-47.56
8,idle,715392090.0,7.551,6.311,-2.662,-1.4,-1.1,1.71,112.09,-47.57
8,idle,715397090.0,7.58,6.316,-2.667,-1.4,-1.04,1.59,112.1,-47.58
8,idle,715402090.0,7.585,6.364,-2.705,-1.34,-0.49,1.59,112.11,-47.59
8,idle,715412090.0,7.566,6.369,-2.696,-1.28,0.24,1.71,112.13,-47.59
8,idle,715417090.0,7.532,6.34,-2.715,-1.28,0.55,1.52,112.15,-47.59
8,idle,715422090.0,7.537,6.349,-2.715,-1.28,0.61,1.52,112.16,-47.58
8,idle,715427090.0,7.513,6.345,-2.672,-1.34,0.61,1.77,112.17,-47.58
8,idle,715432090.0,7.499,6.388,-2.739,-1.46,0.67,1.83,112.18,-47.56
8,idle,715437090.0,7.479,6.354,-2.682,-1.4,0.49,1.71,112.19,-47.56
8,idle,715442090.0,7.465,6.325,-2.739,-1.52,0.43,1.95,112.21,-47.55
8,idle,715447090.0,7.432,6.34,-2.734,-1.52,0.12,2.07,112.22,-47.54
8,idle,715452091.0,7.465,6.325,-2.725,-1.65,-0.37,1.89,112.24,-47.54
8,idle,715457091.0,7.456,6.311,-2.725,-1.52,-0.55,2.01,112.25,-47.54
8,idle,715462091.0,7.513,6.316,-2.72,-1.71,-0.98,1.83,112.26,-47.54
8,idle,715467091.0,7.513,6.302,-2.725,-1.71,-1.34,1.83,112.28,-47.55
8,idle,715472091.0,7.499,6.297,-2.725,-1.71,-1.4,1.77,112.29,-47.55
8,idle,715477091.0,7.561,6.273,-2.71,-1.52,-1.16,1.89,112.31,-47.57
8,idle,715482091.0,7.58,6.263,-2.696,-1.59,-0.91,2.01,112.32,-47.58
8,idle,715487091.0,7.58,6.287,-2.682,-1.59,-0.61,1.77,112.32,-47.59
8,idle,715492091.0,7.575,6.311,-2.643,-1.4,-0.37,1.59,112.33,-47.6
8,idle,715497092.0,7.57,6.297,-2.658,-1.4,0.0,1.59,112.33,-47.61
8,idle,715502092.0,7.527,6.302,-2.677,-1.46,0.43,1.77,112.34,-47.61
8,idle,715507092.0,7.513,6.306,-2.725,-1.59,0.61,1.95,112.35,-47.6
8,idle,715512092.0,7.479,6.263,-2.72,-1.4,0.98,2.13,112.37,-47.6
8,idle,715517093.0,7.446,6.302,-2.667,-1.34,1.04,2.26,112.37,-47.59
8,idle,715522093.0,7.417,6.287,-2.61,-1.28,1.28,2.13,112.37,-47.58
8,idle,715527094.0,7.384,6.258,-2.624,-1.34,1.16,2.38,112.37,-47.57
8,idle,715532094.0,7.369,6.263,-2.586,-1.1,0.98,2.2,112.36,-47.56
8,idle,715537094.0,7.379,6.292,-2.547,-0.73,0.67,2.26,112.35,-47.56
8,idle,715542094.0,7.365,6.311,-2.595,-0.85,0.18,2.07,112.35,-47.55
8,idle,715547094.0,7.369,6.311,-2.634,-0.67,-0.12,2.32,112.35,-47.54
8,idle,715552094.0,7.369,6.33,-2.586,-0.67,-0.24,2.32,112.35,-47.53
8,idle,715557094.0,7.422,6.325,-2.543,-0.61,-0.49,2.26,112.33,-47.53
8,idle,715562094.0,7.46,6.325,-2.547,-0.43,-0.3,2.13,112.32,-47.54
8,idle,715567094.0,7.484,6.373,-2.581,-0.3,-0.55,2.2,112.32,-47.54
8,idle,715572094.0,7.508,6.349,-2.591,-0.3,-0.37,2.2,112.31,-47.54
