rep,label,t_us,ax,ay,az,gx,gy,gz,roll,pitch
0,jab,31418064.0,0.599,23.339,-0.474,-69.82,58.29,-49.15,88.47,25.1
0,jab,31423064.0,1.642,25.369,-0.651,-88.17,66.59,-49.27,88.1,24.85
0,jab,31428064.0,2.926,27.524,-0.646,-108.48,76.59,-50.43,87.63,24.61
0,jab,31433064.0,4.453,29.492,-0.211,-131.16,90.0,-55.49,87.05,24.39
0,jab,31438064.0,6.732,31.388,0.752,-152.8,98.66,-64.39,86.33,24.14
0,jab,31443064.0,9.783,33.03,1.882,-172.68,105.24,-73.9,85.49,23.84
0,jab,31448064.0,12.819,33.777,3.352,-191.04,111.83,-81.95,84.53,23.5
0,jab,31453064.0,15.198,33.849,5.042,-206.77,116.59,-92.68,83.46,23.12
0,jab,31458064.0,16.774,33.514,6.804,-219.02,117.74,-110.43,82.29,22.71
0,jab,31463064.0,17.77,32.944,7.834,-226.71,118.23,-134.7,81.06,22.29
0,jab,31468064.0,18.153,31.68,8.519,-228.41,122.13,-161.71,79.82,21.86
0,jab,31473064.0,17.961,29.453,9.122,-224.39,131.52,-191.77,78.58,21.46
0,jab,31478064.0,17.243,26.169,9.936,-217.74,144.15,-224.63,77.33,21.11
0,jab,31483064.0,16.127,22.295,10.625,-212.5,156.52,-261.34,76.03,20.79
0,jab,31488064.0,14.471,18.316,11.028,-209.21,165.67,-302.13,74.66,20.5
0,jab,31493064.0,12.728,14.236,10.381,-204.09,172.99,-344.63,73.25,20.22
0,jab,31498064.0,10.884,10.506,9.38,-192.99,175.18,-383.84,71.8,19.92
0,jab,31503064.0,9.256,7.456,8.025,-169.82,172.62,-409.7,70.39,19.57
0,jab,31508064.0,8.739,4.817,5.981,-132.68,162.62,-416.22,69.11,19.0
0,jab,31513064.0,8.94,2.734,4.061,-84.45,146.46,-406.71,67.99,18.11
0,jab,31518064.0,8.926,0.972,3.108,-30.73,127.87,-381.46,66.83,16.98
0,jab,31523064.0,8.183,-1.144,2.854,24.82,108.05,-343.66,65.18,15.78
0,jab,31528064.0,6.661,-3.955,2.399,80.79,89.33,-303.66,63.1,14.8
0,jab,31533064.0,4.894,-7.81,1.456,136.59,75.12,-272.38,60.91,14.23
0,jab,31538064.0,2.72,-12.895,1.168,194.15,64.21,-256.59,58.95,14.03
0,jab,31543064.0,0.527,-18.919,1.753,252.13,50.3,-258.78,57.31,13.96
0,jab,31548065.0,-1.623,-24.565,3.127,307.26,30.06,-275.06,56.02,13.9
0,jab,31553065.0,-3.136,-29.152,4.482,355.24,3.96,-295.73,55.01,13.77
0,jab,31558065.0,-4.142,-33.016,5.602,391.83,-28.23,-310.98,54.23,13.49
0,jab,31563066.0,-5.65,-36.157,6.656,414.33,-67.99,-315.06,53.58,13.07
0,jab,31568066.0,-7.36,-38.336,7.939,421.4,-116.89,-306.83,53.01,12.45
0,jab,31573066.0,-10.032,-40.591,9.414,413.29,-173.23,-287.99,52.43,11.62
0,jab,31578066.0,-13.211,-41.626,10.415,393.6,-235.0,-261.65,51.79,10.58
0,jab,31583067.0,-17.061,-40.989,9.586,360.67,-291.71,-226.52,50.99,9.38
0,jab,31588067.0,-21.414,-38.676,5.631,318.11,-320.24,-184.45,49.89,8.19
0,jab,31593068.0,-26.375,-34.352,-0.905,275.06,-311.71,-147.5,48.41,7.25
0,jab,31598068.0,-29.391,-29.391,-9.653,245.0,-260.12,-119.15,46.48,6.7
0,jab,31603068.0,-31.575,-23.162,-18.66,230.24,-169.88,-102.32,44.1,6.67
0,jab,31608068.0,-34.089,-18.095,-27.256,234.82,-52.32,-99.09,41.44,7.21
0,jab,31613068.0,-34.453,-14.858,-32.666,252.74,79.76,-111.65,38.74,8.33
0,jab,31618068.0,-35.449,-9.4,-32.686,269.88,194.21,-115.49,36.01,10.04
0,jab,31623068.0,-34.409,-7.288,-30.382,279.63,264.09,-104.57,33.33,12.09
0,jab,31628068.0,-28.367,-9.146,-23.157,253.54,288.66,-87.38,30.74,14.23
0,jab,31633068.0,-20.739,-14.815,-12.119,180.67,278.11,-60.06,28.42,16.26
0,jab,31638068.0,-14.624,-17.602,-1.12,80.18,233.96,-35.12,26.37,17.87
0,jab,31643068.0,-9.222,-15.467,5.521,-33.6,160.12,-13.54,24.27,18.89
0,jab,31648068.0,-4.956,-9.859,5.804,-123.66,75.67,18.6,21.99,19.35
0,jab,31653068.0,-3.002,-4.324,2.26,-167.13,2.62,65.73,19.49,19.6
0,jab,31658068.0,-3.208,-0.675,-1.058,-162.44,-71.46,132.2,15.35,20.24
0,jab,31663068.0,-5.444,-1.336,-1.178,-139.15,-112.56,180.3,11.73,20.72
0,jab,31668068.0,-8.509,-4.515,-0.34,-112.32,-136.89,210.61,9.06,20.87
0,jab,31673069.0,-10.769,-7.652,0.551,-86.28,-151.59,223.9,6.74,20.8
0,jab,31678069.0,-11.688,-8.983,1.614,-64.51,-159.88,231.46,4.69,20.64
0,jab,31683069.0,-11.813,-9.045,2.538,-51.65,-163.35,241.04,2.86,20.46
0,jab,31688069.0,-12.096,-8.892,2.571,-48.48,-154.39,252.26,1.09,20.34
0,jab,31693069.0,-12.929,-9.285,1.681,-49.09,-129.39,258.78,-0.77,20.38
0,jab,31698069.0,-14.001,-10.367,0.627,-46.34,-90.98,255.49,-2.71,20.6
0,jab,31703069.0,-14.494,-11.272,-0.024,-37.07,-44.45,241.16,-4.64,21.01
0,jab,31708069.0,-14.557,-11.655,0.0,-24.45,9.27,220.98,-6.47,21.66
0,jab,31713069.0,-14.174,-11.32,0.69,-10.98,62.5,196.28,-8.12,22.56
0,jab,31718069.0,-12.953,-10.118,1.413,0.3,105.06,170.06,-9.6,23.66
0,jab,31723069.0,-11.004,-8.495,2.351,5.91,131.95,147.44,-10.87,24.86
0,jab,31728069.0,-8.284,-7.7,2.643,8.35,140.61,133.96,-12.03,25.96
0,jab,31733069.0,-6.091,-6.45,3.582,8.48,130.91,131.04,-12.97,26.87
0,jab,31738069.0,-4.899,-5.492,4.894,0.12,102.74,134.94,-13.67,27.51
0,jab,31743069.0,-4.18,-4.367,5.593,-12.56,58.84,143.23,-14.22,27.86
0,jab,31748069.0,-4.027,-3.132,5.588,-26.04,5.49,154.88,-14.65,27.97
0,jab,31753069.0,-4.343,-1.776,4.927,-36.52,-47.74,169.09,-14.93,27.97
0,jab,31758069.0,-5.205,-0.321,3.826,-42.56,-93.48,185.24,-14.94,28.03
0,jab,31763069.0,-6.22,0.402,2.868,-42.99,-127.07,198.6,-14.69,28.15
0,jab,31768069.0,-7.475,0.776,2.428,-38.41,-149.76,205.06,-14.23,28.27
0,jab,31773069.0,-8.495,1.044,2.313,-31.1,-163.17,204.27,-13.61,28.37
0,jab,31778069.0,-9.16,1.393,2.394,-23.9,-167.01,198.05,-12.85,28.45
0,jab,31783069.0,-9.491,1.935,2.595,-17.74,-162.8,188.29,-11.95,28.51
0,jab,31788069.0,-9.701,2.638,2.476,-14.15,-149.57,177.38,-10.84,28.6
0,jab,31793069.0,-9.855,3.237,2.222,-12.74,-128.11,166.04,-9.58,28.76
0,jab,31798069.0,-9.658,3.668,2.15,-13.6,-98.96,152.8,-8.26,29.03
0,jab,31803069.0,-9.036,4.338,2.198,-16.16,-67.44,138.17,-6.91,29.35
0,jab,31808069.0,-7.839,5.08,1.891,-19.27,-37.13,123.35,-5.48,29.69
0,jab,31813069.0,-6.493,5.679,1.686,-23.11,-8.66,109.7,-4.01,30.0
0,jab,31818069.0,-5.569,6.086,1.633,-26.4,15.37,98.48,-2.56,30.31
0,jab,31823069.0,-5.004,6.551,1.604,-28.48,34.94,88.48,-1.12,30.61
0,jab,31828069.0,-4.53,6.981,1.484,-30.0,48.66,80.37,0.31,30.88
0,jab,31833069.0,-4.051,7.542,1.374,-32.2,58.9,74.39,1.74,31.11
0,jab,31838069.0,-3.658,8.025,1.326,-34.94,65.61,71.1,3.15,31.29
0,jab,31843069.0,-3.5,8.447,1.389,-37.99,68.72,69.7,4.51,31.45
0,jab,31848069.0,-3.572,8.868,1.671,-41.04,70.18,70.55,5.81,31.59
0,jab,31853069.0,-3.62,9.232,1.872,-43.17,69.88,74.09,7.05,31.72
0,jab,31858069.0,-3.51,9.744,1.935,-45.61,68.54,80.24,8.26,31.82
0,jab,31863069.0,-3.448,10.333,1.915,-47.01,65.24,86.59,9.45,31.86
0,jab,31868069.0,-3.151,10.846,1.705,-48.41,62.13,93.41,10.65,31.85
0,jab,31873069.0,-2.993,11.214,1.47,-49.82,60.43,100.49,11.84,31.8
0,jab,31878069.0,-3.065,11.31,1.164,-49.94,59.88,107.2,13.04,31.76
0,jab,31883069.0,-3.28,11.502,0.977,-47.44,60.12,111.83,14.25,31.74
0,jab,31888069.0,-3.63,11.698,0.924,-42.62,60.91,113.96,15.47,31.75
0,jab,31893069.0,-3.644,12.024,0.426,-38.35,63.35,114.27,16.73,31.76
0,jab,31898069.0,-3.85,12.383,0.388,-34.15,68.05,112.26,17.99,31.8
0,jab,31903069.0,-3.883,12.933,-0.048,-28.29,73.72,108.41,19.3,31.86
0,jab,31908069.0,-3.936,13.537,-0.057,-21.4,80.55,102.5,20.61,31.95
0,jab,31913069.0,-4.094,13.858,-0.038,-12.93,88.48,94.88,21.94,32.07
0,jab,31918069.0,-4.195,13.968,0.268,-3.29,96.04,85.06,23.26,32.23
0,jab,31923069.0,-4.233,14.02,0.656,6.65,101.28,72.01,24.58,32.42
0,jab,31928069.0,-4.295,13.997,0.9,15.91,104.09,56.22,25.89,32.62
0,jab,31933069.0,-4.286,14.097,1.058,24.21,105.43,38.96,27.21,32.82
0,jab,31938069.0,-4.132,14.255,1.183,31.34,105.37,22.8,28.52,33.01
0,jab,31943069.0,-3.802,14.255,1.235,35.79,103.9,10.55,29.83,33.15
0,jab,31948069.0,-3.428,13.958,1.374,36.52,102.07,3.66,31.1,33.26
0,jab,31953069.0,-3.065,13.724,1.542,34.7,99.51,2.99,32.32,33.34
0,jab,31958069.0,-2.878,13.36,1.628,30.61,97.5,6.89,33.48,33.39
0,jab,31963069.0,-2.954,13.015,1.499,24.94,95.98,12.26,34.6,33.45
0,jab,31968069.0,-3.036,12.747,1.59,18.78,93.72,16.4,35.66,33.5
0,jab,31973069.0,-2.974,12.584,1.523,12.99,88.48,18.66,36.67,33.53
0,jab,31978069.0,-2.859,12.263,1.719,7.62,80.79,19.57,37.62,33.51
0,jab,31983069.0,-2.677,11.99,2.097,2.68,70.24,20.0,38.48,33.44
0,jab,31988069.0,-2.48,11.823,2.571,-3.17,57.44,20.73,39.25,33.28
0,jab,31993069.0,-2.385,11.847,3.045,-10.06,43.17,22.01,39.93,33.05
0,jab,31998069.0,-2.332,12.019,3.424,-17.44,27.38,23.72,40.52,32.73
0,jab,32003069.0,-2.303,12.244,3.654,-24.51,11.04,26.22,41.06,32.34
0,jab,32008069.0,-2.375,12.536,3.654,-29.63,-5.24,29.51,41.57,31.87
0,jab,32013069.0,-2.653,12.675,3.529,-31.83,-19.57,32.87,42.07,31.36
0,jab,32018069.0,-3.112,12.723,3.457,-31.28,-30.85,35.37,42.57,30.85
1,jab,35908099.0,-5.037,8.298,0.603,-4.27,-3.66,8.84,86.39,30.75
1,jab,35913099.0,-5.037,8.27,0.608,-4.82,-2.68,8.41,86.35,30.75
1,jab,35918099.0,-5.023,8.322,0.661,-4.94,-1.28,7.93,86.31,30.75
1,jab,35923100.0,-4.98,8.38,0.675,-4.51,-0.3,8.11,86.27,30.75
1,jab,35928100.0,-4.942,8.365,0.632,-4.27,0.79,8.23,86.24,30.75
1,jab,35933101.0,-4.951,8.341,0.723,-3.78,1.77,8.17,86.19,30.75
1,jab,35938102.0,-4.937,8.341,0.723,-3.17,2.74,8.05,86.16,30.76
1,jab,35943102.0,-4.927,8.346,0.728,-2.32,3.17,7.38,86.12,30.77
1,jab,35948102.0,-4.87,8.346,0.704,-1.28,3.72,6.71,86.1,30.78
1,jab,35953102.0,-4.889,8.322,0.718,-0.43,4.7,5.73,86.07,30.79
1,jab,35958102.0,-4.851,8.289,0.733,0.43,6.16,5.12,86.05,30.81
1,jab,35963102.0,-4.741,8.341,0.757,1.4,6.95,3.96,86.04,30.82
1,jab,35968102.0,-4.654,8.384,0.824,2.32,7.87,2.44,86.01,30.82
1,jab,35973102.0,-4.53,8.452,0.9,3.23,7.8,0.18,85.99,30.8
1,jab,35978102.0,-4.424,8.629,0.962,4.94,7.01,-2.07,85.97,30.76
1,jab,35983102.0,-4.286,8.835,0.915,7.13,6.16,-4.45,85.96,30.69
1,jab,35988102.0,-4.156,8.993,0.986,10.24,5.06,-6.46,85.97,30.59
1,jab,35993102.0,-4.027,9.05,0.948,13.9,4.21,-8.35,86.0,30.48
1,jab,35998102.0,-3.941,9.045,1.049,18.35,3.23,-10.61,86.04,30.35
1,jab,36003102.0,-3.773,9.165,1.154,23.17,2.13,-13.23,86.08,30.2
1,jab,36008102.0,-3.606,9.328,1.235,27.74,1.1,-16.16,86.15,30.02
1,jab,36013102.0,-3.448,9.51,1.264,31.71,0.73,-18.84,86.23,29.82
1,jab,36018102.0,-3.256,9.668,1.269,35.49,0.98,-21.65,86.33,29.6
1,jab,36023102.0,-3.093,9.893,1.283,39.21,1.83,-24.57,86.45,29.36
1,jab,36028102.0,-2.873,10.171,1.279,42.62,3.6,-27.8,86.58,29.1
1,jab,36033102.0,-2.758,10.578,1.384,45.12,6.1,-31.59,86.72,28.84
1,jab,36038102.0,-2.552,10.951,1.47,46.83,8.05,-36.04,86.87,28.56
1,jab,36043103.0,-2.164,11.339,1.374,47.56,11.65,-41.59,87.02,28.26
1,jab,36048103.0,-1.733,12.201,1.403,47.26,17.87,-49.57,87.18,27.95
1,jab,36053103.0,-1.183,12.996,1.585,47.87,23.84,-60.0,87.33,27.61
1,jab,36058103.0,-0.417,13.968,1.733,49.21,28.66,-71.65,87.49,27.23
1,jab,36063103.0,0.46,15.107,2.049,50.0,32.8,-82.87,87.63,26.81
1,jab,36068103.0,0.905,15.864,1.882,50.67,34.76,-91.77,87.79,26.38
1,jab,36073103.0,1.714,17.133,2.409,52.5,32.68,-102.01,87.93,25.9
1,jab,36078103.0,3.065,18.253,3.314,53.23,27.01,-107.87,88.03,25.33
1,jab,36083103.0,4.401,19.302,4.468,51.77,15.67,-108.72,88.06,24.65
1,jab,36088103.0,5.315,20.609,5.497,47.62,-1.4,-103.78,88.03,23.87
1,jab,36093103.0,5.837,21.984,5.99,41.77,-24.39,-94.21,87.97,22.98
1,jab,36098103.0,6.182,23.272,5.928,34.82,-47.87,-81.89,87.9,22.0
1,jab,36103103.0,6.038,24.268,5.756,29.15,-67.74,-66.77,87.82,20.96
1,jab,36108103.0,5.368,24.919,5.176,25.79,-83.11,-51.71,87.75,19.89
1,jab,36113103.0,4.396,24.991,4.185,24.63,-91.95,-39.33,87.73,18.85
1,jab,36118103.0,3.29,24.794,3.175,26.34,-91.83,-32.62,87.75,17.87
1,jab,36123103.0,2.356,24.316,2.294,30.12,-84.21,-32.5,87.84,16.99
1,jab,36128103.0,1.724,24.162,1.403,34.09,-71.34,-39.51,87.98,16.22
1,jab,36133103.0,1.369,23.559,0.656,38.6,-54.39,-52.5,88.18,15.56
1,jab,36138103.0,1.279,22.802,0.254,42.44,-36.89,-68.48,88.41,15.01
1,jab,36143105.0,1.446,22.103,0.158,42.99,-18.72,-86.16,88.65,14.54
1,jab,36148105.0,1.829,21.577,0.187,39.39,-2.13,-104.27,88.86,14.14
1,jab,36153105.0,2.533,21.28,0.172,30.43,9.39,-120.98,89.02,13.77
1,jab,36158105.0,3.338,20.652,0.129,16.71,17.44,-133.9,89.11,13.39
1,jab,36163105.0,4.166,20.317,0.062,0.91,22.01,-145.85,89.13,13.0
1,jab,36168105.0,5.133,20.212,-0.048,-17.01,23.29,-156.4,89.07,12.57
1,jab,36173105.0,5.895,19.642,0.091,-35.24,23.48,-163.11,88.91,12.1
1,jab,36178105.0,6.589,19.149,0.771,-49.21,20.43,-164.02,88.64,11.58
1,jab,36183105.0,7.379,18.804,1.446,-55.61,13.84,-158.29,88.31,10.99
1,jab,36188105.0,7.896,18.311,1.911,-55.24,4.39,-146.65,87.96,10.33
1,jab,36193106.0,8.088,17.257,2.107,-51.59,-6.46,-131.22,87.6,9.59
1,jab,36198106.0,7.599,14.882,2.246,-48.23,-16.4,-112.5,87.24,8.78
1,jab,36203106.0,6.934,11.214,3.093,-45.61,-29.39,-95.61,86.77,7.85
1,jab,36208106.0,6.46,7.302,4.08,-43.29,-44.63,-86.95,86.04,6.72
1,jab,36213106.0,5.171,3.414,5.416,-40.06,-59.51,-88.78,84.76,5.51
1,jab,36218107.0,3.419,-0.297,5.938,-31.59,-74.57,-100.91,82.86,4.44
1,jab,36223107.0,1.135,-3.859,6.153,-13.54,-90.67,-122.07,80.49,3.73
1,jab,36228108.0,-1.14,-7.163,6.618,16.46,-109.09,-145.0,78.02,3.25
1,jab,36233108.0,-3.357,-10.396,7.446,54.51,-135.98,-163.23,75.64,2.81
1,jab,36238108.0,-5.976,-14.044,8.432,92.13,-167.13,-172.68,73.39,2.34
1,jab,36243108.0,-10.084,-18.095,10.276,120.98,-200.43,-171.77,71.31,1.83
1,jab,36248108.0,-15.227,-21.351,12.325,136.46,-240.43,-161.22,69.35,1.25
1,jab,36253108.0,-20.705,-23.698,13.906,138.9,-279.94,-140.98,67.45,0.59
1,jab,36258108.0,-27.011,-24.531,13.393,132.68,-316.34,-117.2,65.53,-0.09
1,jab,36263108.0,-31.536,-23.631,10.855,115.24,-336.52,-97.99,63.48,-0.73
1,jab,36268109.0,-32.734,-22.328,6.416,90.18,-320.85,-81.16,61.17,-1.19
1,jab,36273109.0,-36.536,-21.797,3.16,66.89,-266.77,-74.15,58.64,-1.3
1,jab,36278109.0,-39.533,-22.108,-0.795,55.12,-198.35,-88.54,55.89,-1.03
1,jab,36283109.0,-41.013,-22.434,-5.176,61.52,-129.7,-127.5,53.02,-0.43
1,jab,36288110.0,-40.203,-20.834,-8.686,83.05,-65.37,-175.98,50.11,0.47
1,jab,36293110.0,-36.741,-18.004,-10.439,106.04,-2.44,-216.83,47.23,1.66
1,jab,36298111.0,-31.201,-15.27,-10.032,124.63,55.0,-238.11,44.43,3.09
1,jab,36303111.0,-25.795,-12.938,-7.389,132.87,95.24,-237.13,41.8,4.69
1,jab,36308112.0,-21.524,-10.563,-4.511,123.11,112.13,-214.82,39.3,6.39
1,jab,36313112.0,-18.091,-8.408,-3.85,100.61,119.02,-177.44,36.72,8.1
1,jab,36318112.0,-15.965,-6.742,-4.669,74.82,118.29,-135.12,33.85,9.78
1,jab,36323112.0,-14.667,-5.804,-6.249,54.88,110.37,-93.11,30.7,11.32
1,jab,36328112.0,-13.594,-5.966,-6.981,45.43,103.11,-54.15,27.52,12.72
1,jab,36333112.0,-12.938,-7.211,-6.158,41.77,91.1,-23.17,24.57,13.98
1,jab,36338112.0,-11.985,-6.828,-3.754,33.48,75.67,3.17,21.86,15.21
1,jab,36343112.0,-10.645,-6.948,-1.982,20.0,60.43,29.63,19.41,16.32
1,jab,36348112.0,-9.96,-6.91,0.019,5.06,44.7,51.16,17.25,17.32
1,jab,36353112.0,-9.912,-7.063,2.16,-16.16,30.91,64.82,15.36,18.19
1,jab,36358112.0,-9.74,-6.689,3.587,-41.83,18.41,71.28,13.61,18.96
1,jab,36363113.0,-8.624,-7.278,3.654,-75.0,9.15,77.68,11.71,19.56
1,jab,36368113.0,-7.36,-6.996,1.8,-93.54,5.67,92.13,9.5,20.1
1,jab,36373113.0,-6.45,-6.297,0.0,-98.41,13.48,114.39,7.03,20.68
1,jab,36378113.0,-6.316,-5.157,-1.154,-86.28,27.87,139.63,4.41,21.41
1,jab,36383113.0,-6.809,-4.137,-0.824,-66.65,42.99,159.02,1.97,22.35
1,jab,36388113.0,-7.345,-3.414,0.637,-49.7,53.6,164.7,0.1,23.46
1,jab,36393113.0,-7.575,-3.213,2.169,-39.7,59.94,159.88,-1.21,24.55
1,jab,36398113.0,-7.556,-3.314,2.964,-34.82,64.51,149.02,-2.32,25.56
1,jab,36403113.0,-7.657,-3.05,3.146,-31.83,68.41,136.22,-3.32,26.59
1,jab,36408113.0,-7.705,-2.437,2.998,-28.96,71.95,123.11,-4.17,27.68
1,jab,36413113.0,-7.661,-1.686,2.907,-26.16,75.37,110.3,-4.82,28.82
1,jab,36418113.0,-7.408,-0.862,3.069,-24.09,76.16,98.66,-5.16,29.95
1,jab,36423113.0,-6.943,-0.474,3.405,-23.72,72.5,87.8,-5.33,30.98
1,jab,36428113.0,-6.445,0.297,3.85,-24.02,63.11,80.49,-5.25,31.85
1,jab,36433113.0,-5.986,1.058,4.377,-26.28,47.5,78.17,-5.0,32.51
1,jab,36438113.0,-5.799,1.623,4.616,-28.23,27.32,80.18,-4.65,32.99
1,jab,36443113.0,-5.914,2.002,4.788,-31.59,4.76,86.04,-4.26,33.33
1,jab,36448113.0,-6.488,2.054,4.855,-35.79,-17.99,95.55,-3.89,33.59
1,jab,36453115.0,-7.489,1.982,4.817,-40.55,-41.95,109.09,-3.57,33.82
1,jab,36458116.0,-8.514,1.877,4.889,-45.12,-57.68,120.3,-3.3,34.03
1,jab,36463116.0,-9.562,1.839,4.879,-48.9,-67.38,132.01,-3.06,34.24
1,jab,36468116.0,-10.41,1.867,4.894,-52.2,-69.7,143.6,-2.83,34.48
1,jab,36473116.0,-11.119,1.901,4.889,-56.52,-67.13,151.22,-2.63,34.76
1,jab,36478116.0,-11.698,2.318,4.846,-60.06,-60.18,152.2,-2.36,35.08
1,jab,36483116.0,-12.014,2.433,4.539,-65.37,-50.73,145.24,-2.07,35.46
1,jab,36488116.0,-11.885,3.443,4.041,-65.79,-38.23,131.34,-1.54,35.88
1,jab,36493116.0,-11.195,4.108,3.151,-66.46,-22.56,115.67,-0.79,36.36
1,jab,36498116.0,-10.669,4.597,1.863,-57.93,-4.33,100.18,0.31,36.91
1,jab,36503116.0,-9.955,5.602,1.379,-40.67,10.67,82.87,1.62,37.42
1,jab,36508116.0,-9.045,6.474,1.762,-23.9,22.13,66.77,2.97,37.85
2,jab,40453137.0,-2.107,17.731,0.766,31.28,-117.99,-43.72,92.37,19.47
2,jab,40458137.0,-0.848,19.125,0.129,38.17,-128.23,-50.49,92.5,18.5
2,jab,40468137.0,2.447,24.292,-0.196,52.68,-172.93,-56.22,92.91,16.08
2,jab,40473137.0,4.266,27.39,-0.795,53.6,-206.95,-49.88,93.15,14.57
2,jab,40478137.0,5.258,29.951,-1.346,49.27,-248.05,-36.71,93.38,12.86
2,jab,40483137.0,5.751,31.527,-2.04,41.34,-294.27,-20.91,93.58,10.96
2,jab,40488137.0,6.038,32.001,-2.5,30.0,-338.78,-6.71,93.75,8.86
2,jab,40493137.0,5.804,31.876,-2.921,17.01,-379.76,4.02,93.86,6.62
2,jab,40498137.0,5.42,31.68,-3.491,2.8,-412.62,8.29,93.92,4.27
2,jab,40503137.0,4.918,31.249,-4.539,-11.34,-433.54,4.45,93.96,1.89
2,jab,40508137.0,4.314,30.584,-5.88,-22.26,-443.35,-9.27,93.98,-0.48
2,jab,40518139.0,3.74,27.873,-8.255,-30.3,-434.45,-54.7,94.15,-5.01
2,jab,40523139.0,3.764,25.867,-8.533,-32.8,-422.44,-81.1,94.27,-7.14
2,jab,40533140.0,4.961,21.668,-7.863,-48.54,-383.11,-126.59,94.47,-11.12
2,jab,40538140.0,4.429,18.019,-6.924,-66.1,-371.4,-141.16,94.48,-12.97
2,jab,40543140.0,3.893,13.901,-5.353,-82.44,-366.77,-160.37,94.4,-14.8
2,jab,40548140.0,3.917,9.586,-2.983,-96.46,-372.56,-184.57,94.19,-16.76
2,jab,40553140.0,4.884,5.717,-1.14,-111.34,-388.35,-209.21,93.79,-19.12
2,jab,40558140.0,5.626,2.418,0.498,-127.99,-405.67,-228.6,92.85,-22.06
2,jab,40563141.0,5.516,-0.551,1.753,-143.72,-421.71,-241.34,89.94,-25.11
2,jab,40568141.0,4.937,-3.543,2.902,-155.49,-430.43,-247.32,86.37,-27.66
2,jab,40573141.0,4.195,-6.981,4.444,-162.8,-425.37,-247.62,82.69,-29.73
2,jab,40578141.0,3.304,-10.439,6.206,-165.3,-409.39,-245.55,79.04,-31.45
2,jab,40583141.0,2.734,-13.494,8.169,-163.54,-386.1,-246.46,75.48,-32.91
2,jab,40588141.0,3.021,-16.424,10.171,-155.61,-358.78,-252.01,72.05,-34.18
2,jab,40593141.0,3.553,-19.201,12.038,-142.13,-329.7,-261.46,68.75,-35.29
2,jab,40598141.0,3.682,-21.644,13.829,-127.44,-298.48,-273.41,65.6,-36.21
2,jab,40603141.0,3.208,-24.134,15.605,-113.17,-266.89,-288.72,62.59,-36.93
2,jab,40608141.0,2.519,-26.59,17.784,-101.04,-238.72,-310.73,59.72,-37.45
2,jab,40613141.0,2.227,-28.39,20.379,-91.59,-223.96,-338.72,56.99,-37.87
2,jab,40618142.0,2.155,-29.779,23.415,-85.91,-227.01,-365.73,54.39,-38.29
2,jab,40623142.0,2.298,-29.851,26.652,-82.56,-252.62,-386.4,51.94,-38.83
2,jab,40628142.0,2.03,-28.228,30.253,-89.09,-294.76,-393.48,49.6,-39.55
2,jab,40633142.0,0.833,-26.13,32.7,-109.02,-347.01,-383.05,47.3,-40.48
2,jab,40643143.0,-5.78,-21.193,29.396,-142.2,-416.52,-337.74,42.68,-42.57
2,jab,40648143.0,-10.285,-18.277,25.675,-148.84,-407.74,-313.35,40.39,-43.36
2,jab,40653143.0,-14.222,-15.409,21.644,-148.78,-372.13,-292.2,38.15,-43.75
2,jab,40658143.0,-19.623,-13.326,18.263,-143.35,-316.65,-272.32,35.96,-43.61
2,jab,40663143.0,-25.407,-11.612,12.048,-126.1,-254.45,-251.34,33.74,-42.85
2,jab,40668143.0,-33.643,-10.424,9.361,-91.71,-197.68,-227.2,31.66,-41.61
2,jab,40673143.0,-39.806,-8.475,8.552,-34.63,-209.57,-169.02,29.96,-40.34
2,jab,40678144.0,-40.553,-7.585,6.857,25.79,-252.13,-73.48,28.53,-39.26
2,jab,40683144.0,-36.425,-7.058,4.31,66.59,-267.2,31.71,27.11,-38.24
2,jab,40688144.0,-30.971,-7.149,2.935,89.09,-226.65,127.32,25.65,-37.06
2,jab,40693144.0,-24.828,-8.983,1.528,99.15,-149.21,193.05,24.02,-35.66
2,jab,40698144.0,-18.967,-11.578,1.298,102.44,-57.38,218.78,22.37,-34.05
2,jab,40703144.0,-13.838,-14.806,2.744,106.04,28.23,207.99,20.85,-32.38
2,jab,40708145.0,-9.5,-16.247,6.038,109.33,98.29,175.43,19.58,-30.68
2,jab,40713145.0,-4.626,-16.06,9.596,103.11,140.24,135.67,18.51,-29.1
2,jab,40718145.0,0.642,-13.853,12.148,86.1,157.68,105.24,17.58,-27.79
2,jab,40723145.0,5.243,-10.257,12.881,63.35,159.21,94.76,16.77,-26.8
2,jab,40728145.0,7.719,-7.116,11.425,40.49,156.22,103.11,16.0,-26.1
2,jab,40733145.0,7.695,-5.559,8.868,26.16,150.61,117.56,15.16,-25.57
2,jab,40738145.0,6.46,-5.392,6.651,25.91,139.7,128.48,14.21,-25.11
2,jab,40743145.0,5.344,-5.986,5.119,35.43,123.17,131.71,13.11,-24.69
2,jab,40748145.0,4.568,-6.613,5.516,49.02,103.35,130.0,12.08,-24.25
2,jab,40753145.0,4.089,-6.014,6.584,59.82,84.02,123.9,11.29,-23.84
2,jab,40758145.0,3.74,-5.401,7.355,51.89,70.49,120.91,10.59,-23.47
2,jab,40763145.0,2.801,-4.851,6.656,55.12,53.54,121.34,9.92,-23.11
2,jab,40768145.0,1.992,-4.228,6.68,65.43,40.91,120.3,9.4,-22.73
2,jab,40773145.0,1.288,-3.692,8.495,72.2,31.52,115.61,9.1,-22.28
2,jab,40778145.0,1.211,-3.395,10.635,71.95,18.54,108.78,8.91,-21.87
2,jab,40783145.0,1.48,-3.591,11.923,63.41,1.77,102.2,8.71,-21.56
2,jab,40788145.0,1.8,-3.792,12.23,48.05,-13.29,97.38,8.43,-21.35
2,jab,40793145.0,1.743,-4.085,12.086,28.41,-21.89,94.45,8.02,-21.19
2,jab,40798145.0,1.322,-4.377,11.818,6.89,-23.48,91.1,7.49,-21.0
2,jab,40803146.0,0.685,-4.626,11.368,-13.6,-16.46,87.38,6.83,-20.72
2,jab,40808146.0,-0.062,-4.707,11.056,-31.89,-0.12,82.56,6.08,-20.3
2,jab,40813146.0,-0.718,-4.525,10.76,-47.68,23.6,76.4,5.27,-19.71
2,jab,40818146.0,-1.427,-3.912,10.53,-60.37,54.45,71.1,4.46,-18.9
2,jab,40823146.0,-1.963,-2.969,10.616,-67.01,90.91,71.04,3.73,-17.88
2,jab,40828147.0,-2.662,-2.069,10.86,-66.83,131.34,74.88,3.11,-16.61
2,jab,40833147.0,-3.189,-1.034,11.162,-61.77,170.3,80.55,2.64,-15.12
2,jab,40838147.0,-3.328,-0.091,11.425,-52.38,204.88,87.07,2.32,-13.49
2,jab,40843147.0,-3.002,0.46,11.272,-40.37,234.39,93.9,2.12,-11.77
2,jab,40848147.0,-2.461,0.144,10.64,-25.73,258.9,101.22,1.97,-10.01
2,jab,40853147.0,-1.939,-0.187,10.19,-8.78,278.17,108.96,1.87,-8.23
2,jab,40858147.0,-1.389,-0.474,10.089,9.82,288.41,117.68,1.82,-6.5
2,jab,40863147.0,-0.819,-0.757,10.166,26.77,290.37,127.01,1.83,-4.85
2,jab,40868147.0,-0.364,-1.03,10.309,40.24,283.66,136.46,1.88,-3.33
2,jab,40873147.0,0.254,-1.317,10.467,49.7,270.61,146.52,1.94,-1.96
2,jab,40878147.0,0.828,-1.609,10.281,54.76,253.9,158.17,1.99,-0.77
2,jab,40883147.0,0.79,-1.719,10.089,55.98,236.59,171.1,2.03,0.32
2,jab,40888147.0,0.354,-1.48,9.74,54.33,218.9,184.33,2.09,1.34
2,jab,40893147.0,-0.436,-0.953,9.261,50.06,205.0,196.95,2.17,2.37
2,jab,40898147.0,-1.288,-0.503,8.528,43.84,196.1,207.62,2.28,3.46
2,jab,40903147.0,-2.04,-0.345,7.958,37.5,192.2,214.33,2.37,4.62
2,jab,40908147.0,-2.538,-0.388,7.235,31.71,194.33,214.45,2.41,5.87
2,jab,40913147.0,-2.964,-0.373,6.699,28.29,200.67,207.74,2.44,7.21
2,jab,40918147.0,-3.199,-0.11,6.302,27.2,207.87,194.7,2.5,8.62
2,jab,40923147.0,-3.366,0.393,5.947,25.67,216.89,177.74,2.65,10.1
2,jab,40928147.0,-3.529,0.733,5.78,24.82,227.13,158.72,2.87,11.63
2,jab,40933147.0,-3.682,1.197,5.751,23.84,236.22,138.54,3.16,13.2
2,jab,40938147.0,-3.74,1.872,6.0,21.1,243.66,121.28,3.55,14.75
2,jab,40943147.0,-3.692,2.571,6.163,17.13,248.29,110.24,4.01,16.25
2,jab,40948147.0,-3.563,3.462,6.22,12.01,250.98,104.63,4.58,17.68
2,jab,40953147.0,-3.539,4.348,5.885,6.28,252.68,103.9,5.24,19.08
2,jab,40958147.0,-3.251,4.774,5.689,1.28,254.51,109.21,5.95,20.42
2,jab,40963147.0,-3.223,5.2,5.349,-0.73,257.01,120.61,6.71,21.74
2,jab,40968147.0,-3.496,5.459,5.009,-1.28,262.26,136.16,7.52,23.1
2,jab,40973147.0,-4.061,5.511,5.052,-2.38,268.84,152.74,8.3,24.52
2,jab,40978147.0,-4.836,5.66,5.09,-4.51,275.85,168.05,9.08,26.03
2,jab,40983147.0,-5.502,5.569,5.057,-8.48,282.5,179.57,9.81,27.62
2,jab,40988147.0,-5.895,5.325,5.339,-13.54,287.99,184.88,10.44,29.24
2,jab,40993147.0,-5.861,4.468,6.115,-18.29,287.56,179.27,10.87,30.82
2,jab,40998147.0,-5.497,3.941,6.196,-22.13,281.16,159.88,11.19,32.31
2,jab,41003147.0,-5.377,4.314,5.813,-24.57,275.67,130.06,11.58,33.75
2,jab,41008147.0,-5.569,5.358,5.186,-23.54,267.32,96.59,12.15,35.12
2,jab,41013147.0,-5.708,6.881,4.223,-17.74,254.63,66.04,12.99,36.37
2,jab,41018147.0,-5.646,8.413,3.376,-6.46,240.12,44.7,14.06,37.46
2,jab,41023147.0,-5.114,9.682,3.021,8.9,223.78,36.1,15.28,38.34
2,jab,41028147.0,-4.08,10.683,2.868,25.12,205.43,39.45,16.59,38.99
2,jab,41033147.0,-2.969,11.459,2.82,40.06,188.35,53.35,17.98,39.41
2,jab,41038147.0,-2.361,11.818,2.82,51.77,173.96,74.39,19.41,39.7
2,jab,41043147.0,-2.734,11.574,2.83,60.06,162.5,97.56,20.84,39.96
2,jab,41048147.0,-3.859,10.889,2.461,64.27,154.88,118.6,22.28,40.3
3,jab,45078191.0,3.677,14.93,-1.652,-43.78,60.67,-60.67,72.72,9.8
3,jab,45083191.0,3.922,15.438,-1.872,-56.1,66.28,-68.54,72.93,9.64
3,jab,45088191.0,4.391,15.897,-2.375,-68.35,71.22,-77.2,73.11,9.49
3,jab,45093191.0,5.071,16.515,-2.782,-78.78,74.45,-86.77,73.25,9.33
3,jab,45098191.0,5.856,17.454,-3.223,-86.59,76.65,-94.82,73.37,9.15
3,jab,45103191.0,6.752,18.809,-3.587,-90.12,70.91,-99.09,73.48,8.93
3,jab,45108191.0,7.427,20.303,-3.783,-91.34,58.78,-98.23,73.57,8.64
3,jab,45113191.0,7.791,21.826,-4.118,-90.98,39.7,-93.11,73.67,8.28
3,jab,45118191.0,8.092,23.588,-4.525,-89.94,11.04,-84.63,73.77,7.79
3,jab,45123191.0,8.203,25.762,-4.946,-89.09,-27.8,-71.1,73.88,7.16
3,jab,45128191.0,7.877,27.873,-5.526,-90.85,-75.55,-51.89,73.98,6.33
3,jab,45133191.0,7.403,29.544,-6.488,-95.49,-126.83,-29.15,74.08,5.31
3,jab,45138191.0,7.044,30.224,-7.8,-101.34,-172.87,-3.54,74.19,4.1
3,jab,45143191.0,6.756,29.391,-9.179,-107.38,-205.61,21.28,74.33,2.76
3,jab,45148191.0,6.019,27.433,-9.73,-112.87,-222.5,40.98,74.48,1.38
3,jab,45153191.0,5.301,25.168,-9.831,-119.57,-225.12,51.34,74.63,0.03
3,jab,45158191.0,5.095,23.09,-9.749,-129.15,-214.63,50.79,74.76,-1.25
3,jab,45163191.0,5.478,21.466,-9.371,-140.24,-193.54,42.2,74.85,-2.44
3,jab,45168191.0,6.488,19.905,-8.772,-152.99,-165.85,27.13,74.88,-3.53
3,jab,45173191.0,7.422,18.335,-7.207,-163.6,-138.84,8.66,74.81,-4.56
3,jab,45178191.0,8.562,16.989,-5.018,-172.99,-117.68,-12.07,74.6,-5.56
3,jab,45183191.0,9.735,15.443,-2.394,-182.44,-105.61,-34.63,74.19,-6.6
3,jab,45188191.0,10.865,13.791,0.081,-193.11,-102.38,-54.45,73.55,-7.74
3,jab,45193191.0,11.607,12.076,2.38,-203.11,-104.7,-69.27,72.66,-8.96
3,jab,45198191.0,11.703,10.333,4.587,-210.73,-112.99,-77.56,71.5,-10.25
3,jab,45203191.0,11.195,8.226,6.632,-213.35,-126.1,-78.84,70.04,-11.6
3,jab,45208191.0,10.195,6.005,8.447,-208.66,-140.61,-73.78,68.33,-12.95
3,jab,45213191.0,8.993,3.768,9.95,-197.2,-152.32,-65.18,66.41,-14.24
3,jab,45218191.0,7.57,1.154,10.874,-178.9,-157.93,-54.88,64.33,-15.42
3,jab,45223191.0,5.981,-1.958,11.1,-156.1,-155.18,-47.2,62.08,-16.43
3,jab,45228191.0,4.487,-5.516,11.009,-131.89,-145.55,-44.88,59.66,-17.22
3,jab,45233191.0,3.136,-9.855,10.932,-108.41,-130.85,-51.22,57.09,-17.76
3,jab,45238191.0,1.829,-15.036,11.487,-88.17,-112.07,-68.78,54.46,-18.06
3,jab,45243191.0,0.613,-20.552,13.226,-71.89,-94.27,-96.65,51.88,-18.19
3,jab,45248191.0,-0.718,-26.015,15.596,-61.46,-82.01,-132.87,49.36,-18.2
3,jab,45253191.0,-2.705,-30.622,18.316,-59.94,-77.32,-173.11,46.89,-18.13
3,jab,45258191.0,-4.817,-34.16,21.122,-70.06,-82.5,-217.74,44.45,-18.03
3,jab,45263191.0,-7.072,-36.243,23.851,-91.65,-90.91,-265.24,41.98,-17.93
3,jab,45268191.0,-9.591,-36.129,26.135,-122.56,-102.01,-309.57,39.45,-17.83
3,jab,45273191.0,-11.808,-34.333,27.725,-160.91,-119.76,-341.16,36.86,-17.76
3,jab,45278191.0,-13.647,-31.441,27.385,-205.98,-138.23,-361.46,34.13,-17.72
3,jab,45283191.0,-15.304,-27.356,25.211,-249.39,-151.95,-363.11,31.28,-17.66
3,jab,45288191.0,-17.171,-23.669,22.027,-282.32,-169.09,-354.7,28.33,-17.58
3,jab,45293191.0,-19.115,-20.992,17.77,-295.73,-191.95,-350.91,25.32,-17.47
3,jab,45298191.0,-19.364,-17.885,13.537,-269.15,-212.56,-344.51,22.44,-17.35
3,jab,45303191.0,-19.063,-12.565,12.646,-221.1,-228.48,-324.27,20.01,-17.18
3,jab,45308191.0,-19.307,-6.44,14.346,-176.89,-240.67,-284.39,18.26,-17.0
3,jab,45313191.0,-21.471,-1.255,18.426,-149.15,-255.73,-231.28,17.08,-16.93
3,jab,45318191.0,-24.679,2.691,23.559,-137.38,-301.28,-163.48,16.2,-17.14
3,jab,45323191.0,-27.026,6.603,27.533,-125.73,-357.5,-70.98,15.53,-17.68
3,jab,45328192.0,-27.816,10.238,28.946,-102.32,-393.54,34.76,15.11,-18.41
3,jab,45333192.0,-25.235,12.886,26.413,-80.61,-365.43,128.23,14.93,-19.02
3,jab,45338192.0,-23.003,12.426,20.288,-70.06,-266.16,192.13,14.92,-19.06
3,jab,45343192.0,-22.529,7.939,13.503,-52.99,-143.17,213.9,14.97,-18.28
3,jab,45348192.0,-21.548,1.896,5.023,-10.73,-46.4,191.46,15.03,-16.62
3,jab,45353192.0,-18.186,-4.152,-1.81,60.3,49.21,136.22,12.75,-14.53
3,jab,45358192.0,-14.777,-8.801,-3.141,149.82,136.77,71.71,11.04,-12.41
3,jab,45363192.0,-9.845,-10.927,-0.01,236.28,195.85,17.26,10.17,-10.37
3,jab,45368192.0,-4.573,-9.663,7.216,293.78,230.73,-19.02,10.35,-8.61
3,jab,45373192.0,0.244,-7.331,13.518,305.3,242.01,-31.34,11.07,-7.27
3,jab,45378192.0,2.945,-5.411,17.861,274.57,232.01,-23.6,11.85,-6.17
3,jab,45383192.0,3.96,-4.592,18.206,219.21,201.34,-2.32,12.41,-5.3
3,jab,45388192.0,3.721,-4.86,15.649,164.63,163.17,27.68,12.62,-4.65
3,jab,45393192.0,1.997,-5.746,11.909,127.68,128.84,57.8,12.48,-4.1
3,jab,45398192.0,0.335,-6.115,8.748,112.01,105.85,82.13,12.08,-3.53
3,jab,45403192.0,-1.547,-6.977,7.302,110.85,91.4,98.84,11.51,-2.84
3,jab,45408192.0,-2.931,-7.015,8.04,110.91,87.38,101.46,11.0,-2.05
3,jab,45413192.0,-3.701,-7.207,9.658,98.48,88.35,95.91,10.53,-1.23
3,jab,45418192.0,-4.271,-7.709,10.625,79.88,92.56,82.74,9.99,-0.39
3,jab,45423192.0,-4.281,-8.193,10.989,58.9,99.15,62.87,9.34,0.45
3,jab,45428192.0,-3.352,-8.03,10.836,41.34,105.49,42.5,8.63,1.24
3,jab,45433192.0,-1.877,-6.977,10.75,29.76,110.18,29.02,7.94,1.92
3,jab,45438192.0,-0.474,-5.971,10.994,21.1,112.07,23.96,7.31,2.47
3,jab,45443192.0,0.326,-5.052,12.057,13.72,109.7,23.54,6.78,2.93
3,jab,45448192.0,0.915,-4.329,12.713,6.59,99.02,26.04,6.3,3.28
3,jab,45453192.0,0.972,-3.821,13.307,-1.59,87.74,31.52,5.85,3.56
3,jab,45458192.0,0.694,-3.414,13.403,-7.99,76.46,38.9,5.41,3.81
3,jab,45463192.0,0.206,-3.208,13.278,-12.13,66.65,44.63,4.97,4.04
3,jab,45468192.0,-0.23,-3.089,13.048,-14.02,58.72,46.4,4.53,4.27
3,jab,45473192.0,-0.512,-3.002,12.771,-15.79,52.62,44.63,4.1,4.49
3,jab,45478192.0,-0.962,-2.782,12.675,-15.79,49.02,41.46,3.69,4.72
3,jab,45483192.0,-1.317,-1.81,12.493,-12.26,46.71,40.85,3.39,4.98
3,jab,45488192.0,-1.575,-0.34,12.163,-6.16,49.02,45.49,3.26,5.26
3,jab,45493192.0,-1.805,1.24,11.775,2.01,55.18,54.76,3.33,5.6
3,jab,45498192.0,-1.915,2.476,11.238,14.57,62.74,66.71,3.58,5.99
3,jab,45503192.0,-1.872,3.093,10.688,31.59,74.27,79.45,3.99,6.42
3,jab,45508192.0,-1.973,2.935,10.4,50.73,88.23,88.54,4.47,6.93
3,jab,45513192.0,-2.231,2.236,10.688,67.68,101.65,93.9,4.95,7.52
3,jab,45518192.0,-2.308,1.877,10.927,82.07,113.84,92.26,5.45,8.17
3,jab,45523192.0,-2.284,1.618,11.971,86.46,121.95,90.85,5.92,8.81
3,jab,45528192.0,-2.227,0.967,12.345,82.87,122.44,87.13,6.29,9.44
3,jab,45533192.0,-2.016,0.536,12.321,77.07,119.51,83.84,6.6,10.02
3,jab,45538192.0,-1.844,0.785,12.254,70.49,115.06,83.48,6.88,10.56
3,jab,45543192.0,-1.82,1.235,11.957,62.01,111.16,85.85,7.17,11.06
3,jab,45548192.0,-2.073,2.16,11.55,52.38,108.66,88.9,7.49,11.58
3,jab,45553192.0,-2.514,2.998,10.989,41.59,106.83,92.32,7.85,12.12
3,jab,45558192.0,-3.012,3.563,10.017,33.54,106.1,96.52,8.25,12.71
3,jab,45563192.0,-3.543,3.974,8.964,32.01,107.8,99.94,8.72,13.38
3,jab,45568192.0,-4.07,4.726,8.207,36.28,112.07,100.98,9.32,14.13
3,jab,45573192.0,-4.266,5.703,7.829,43.54,118.6,102.87,10.07,14.9
3,jab,45578192.0,-4.252,6.613,7.805,53.23,125.73,106.83,10.94,15.67
3,jab,45583192.0,-3.965,7.211,7.709,64.15,132.93,112.87,11.89,16.42
3,jab,45588192.0,-3.558,7.954,7.968,75.37,139.88,118.84,12.92,17.13
3,jab,45593192.0,-2.993,8.519,8.011,83.84,144.94,124.51,14.01,17.78
3,jab,45598192.0,-2.519,8.835,8.231,88.11,148.35,130.18,15.1,18.39
3,jab,45603192.0,-2.246,8.61,8.38,91.71,148.72,133.72,16.17,18.96
3,jab,45608192.0,-2.035,8.217,8.691,96.59,145.55,132.5,17.18,19.49
3,jab,45613192.0,-1.729,8.183,8.839,101.46,139.02,123.96,18.19,19.94
3,jab,45618192.0,-1.432,8.595,8.72,106.83,132.87,111.77,19.24,20.33
3,jab,45623192.0,-1.422,8.734,8.217,111.95,126.71,97.32,20.34,20.68
3,jab,45628192.0,-0.781,11.21,7.417,123.05,121.46,86.16,21.67,20.93
3,jab,45633192.0,-0.302,10.726,6.474,129.82,116.22,80.49,23.05,21.11
3,jab,45638192.0,0.019,11.861,5.842,145.12,114.21,79.27,24.58,21.24
3,jab,45643192.0,-0.153,12.345,6.373,153.9,114.39,81.22,26.09,21.39
3,jab,45648192.0,-0.268,12.531,6.79,152.8,115.3,83.41,27.55,21.55
3,jab,45653192.0,-0.369,11.789,6.311,143.96,116.59,84.09,28.94,21.72
3,jab,45658192.0,-0.493,10.726,4.688,138.9,119.57,83.72,30.37,21.92
3,jab,45663192.0,-0.632,10.525,3.405,140.12,125.43,82.07,31.89,22.16
3,jab,45668192.0,-0.704,10.659,2.998,139.76,132.26,79.15,33.42,22.44
3,jab,45673192.0,-0.79,10.659,2.772,136.34,139.45,75.43,34.93,22.76
4,jab,49553225.0,6.742,23.746,3.51,58.84,29.88,-151.83,81.97,21.53
4,jab,49558225.0,7.216,23.118,3.582,49.51,19.88,-160.85,82.2,20.85
4,jab,49563225.0,7.245,22.189,3.51,34.33,9.15,-170.06,82.34,20.13
4,jab,49568225.0,6.651,20.791,3.419,14.76,-5.06,-182.01,82.38,19.35
4,jab,49573225.0,6.029,19.369,3.357,-6.16,-23.48,-198.11,82.31,18.5
4,jab,49578225.0,5.406,18.493,3.112,-29.39,-41.16,-215.49,82.12,17.61
4,jab,49583225.0,4.736,18.201,2.476,-54.33,-54.27,-233.78,81.86,16.7
4,jab,49588225.0,3.433,17.602,1.666,-78.54,-59.09,-251.34,81.53,15.86
4,jab,49593225.0,2.365,16.597,1.154,-97.62,-61.65,-269.33,81.14,15.08
4,jab,49598225.0,1.384,15.174,0.618,-110.24,-60.73,-287.74,80.73,14.38
4,jab,49603225.0,0.259,13.915,0.666,-115.73,-56.28,-303.66,80.3,13.79
4,jab,49608225.0,-0.397,13.154,0.484,-115.24,-52.99,-313.6,79.88,13.29
4,jab,49613225.0,-0.781,12.354,0.469,-110.73,-45.49,-314.45,79.5,12.87
4,jab,49618225.0,-0.536,11.559,0.675,-99.51,-41.46,-308.11,79.16,12.47
4,jab,49623225.0,0.283,10.405,0.891,-84.82,-41.04,-296.34,78.86,11.99
4,jab,49628225.0,1.025,9.021,1.312,-67.74,-44.63,-281.04,78.58,11.4
4,jab,49633225.0,1.484,7.628,1.441,-48.41,-51.4,-263.6,78.36,10.7
4,jab,49638225.0,1.523,5.952,1.374,-26.65,-59.88,-246.04,78.2,9.91
4,jab,49643225.0,1.279,3.768,0.939,-4.88,-61.16,-229.57,78.14,9.05
4,jab,49648225.0,0.182,0.962,0.69,18.23,-54.09,-216.77,77.75,8.43
4,jab,49653225.0,-1.092,-2.413,0.441,44.33,-42.44,-208.66,74.82,8.53
4,jab,49658225.0,-2.102,-6.416,0.292,70.67,-25.55,-206.4,71.92,8.6
4,jab,49663225.0,-2.998,-10.515,0.613,95.0,-2.13,-210.18,69.22,8.74
4,jab,49668225.0,-3.85,-14.207,1.58,118.23,22.01,-217.93,66.74,8.97
4,jab,49673225.0,-4.41,-17.765,2.792,138.9,40.79,-231.59,64.46,9.27
4,jab,49678225.0,-4.741,-21.193,3.917,155.55,54.45,-255.49,62.34,9.6
4,jab,49683225.0,-5.401,-24.263,5.272,167.99,61.59,-289.57,60.37,9.95
4,jab,49688225.0,-6.182,-26.834,7.135,177.93,53.11,-326.28,58.53,10.26
4,jab,49693225.0,-6.431,-28.453,8.839,186.1,27.8,-356.71,56.81,10.44
4,jab,49698225.0,-6.527,-29.176,10.396,192.44,-7.56,-373.17,55.21,10.43
4,jab,49703225.0,-7.321,-29.262,12.167,197.26,-54.21,-374.02,53.73,10.22
4,jab,49708225.0,-8.633,-28.367,12.905,199.7,-107.56,-358.11,52.32,9.8
4,jab,49713225.0,-10.247,-27.366,10.712,197.68,-154.76,-330.0,50.87,9.23
4,jab,49718225.0,-13.283,-25.556,7.518,188.54,-179.45,-299.33,49.3,8.69
4,jab,49723225.0,-16.419,-24.526,2.624,169.88,-179.51,-272.62,47.47,8.31
4,jab,49728225.0,-19.79,-23.109,-2.911,151.1,-154.45,-255.55,45.32,8.2
4,jab,49733225.0,-22.544,-20.643,-9.117,136.89,-112.87,-243.17,42.81,8.38
4,jab,49738225.0,-24.77,-18.124,-15.663,140.3,-55.37,-230.91,40.02,8.86
4,jab,49743225.0,-28.687,-14.308,-18.407,156.34,0.0,-222.93,37.15,9.7
4,jab,49748225.0,-33.217,-9.562,-18.469,168.05,16.52,-196.46,34.17,10.74
4,jab,49753225.0,-33.394,-7.542,-17.684,163.05,-4.88,-144.7,31.15,11.71
4,jab,49758225.0,-29.329,-9.572,-14.135,129.7,-43.17,-76.34,28.25,12.46
4,jab,49763225.0,-22.735,-13.403,-10.247,87.13,-70.3,3.48,25.56,12.93
4,jab,49768225.0,-17.779,-14.643,-3.606,31.46,-67.74,73.6,23.13,13.34
4,jab,49773225.0,-14.341,-13.901,1.398,-30.61,-59.27,117.8,20.83,13.69
4,jab,49778225.0,-12.153,-11.305,4.496,-86.16,-52.44,132.56,18.62,14.06
4,jab,49783225.0,-10.515,-8.131,4.381,-120.12,-51.46,128.84,16.43,14.5
4,jab,49788225.0,-8.557,-5.411,2.255,-123.29,-54.45,122.68,14.15,15.06
4,jab,49793225.0,-6.565,-3.855,0.646,-103.29,-53.78,125.73,11.75,15.68
4,jab,49798225.0,-5.047,-3.85,0.436,-72.93,-51.04,143.78,9.49,16.16
4,jab,49803225.0,-4.808,-4.942,1.03,-40.55,-47.32,170.06,7.53,16.48
4,jab,49808225.0,-5.89,-6.172,1.963,-14.76,-42.87,190.91,5.86,16.79
4,jab,49813225.0,-7.331,-7.336,2.514,3.23,-37.93,200.12,4.34,17.13
4,jab,49818225.0,-7.642,-7.819,2.351,9.51,-34.63,199.15,2.83,17.48
4,jab,49823225.0,-7.46,-8.236,1.901,17.2,-28.48,194.7,1.32,17.82
4,jab,49828225.0,-7.053,-8.475,1.317,23.48,-18.84,193.23,-0.21,18.16
4,jab,49833225.0,-7.034,-8.672,1.24,28.78,-6.77,193.72,-1.7,18.54
4,jab,49838225.0,-7.092,-8.849,1.092,31.71,9.94,194.57,-3.17,18.99
4,jab,49843225.0,-7.508,-9.136,1.077,32.07,29.7,191.4,-4.62,19.54
4,jab,49848225.0,-8.246,-9.567,1.13,28.66,50.12,183.05,-6.05,20.21
4,jab,49853225.0,-8.729,-9.783,0.958,22.68,70.43,168.84,-7.51,20.98
4,jab,49858225.0,-8.887,-10.046,1.341,17.44,85.91,150.18,-8.92,21.8
4,jab,49863225.0,-8.38,-9.869,1.987,11.71,92.62,131.34,-10.26,22.62
4,jab,49868225.0,-7.484,-8.916,3.27,3.05,88.41,116.52,-11.43,23.36
4,jab,49873225.0,-6.507,-7.829,4.257,-5.55,71.77,106.4,-12.46,23.97
4,jab,49878225.0,-5.502,-6.464,5.258,-17.5,46.16,102.01,-13.32,24.39
4,jab,49883225.0,-4.946,-5.176,5.588,-24.57,11.22,104.88,-14.03,24.61
4,jab,49888225.0,-4.99,-3.994,6.024,-28.9,-27.8,112.38,-14.56,24.68
4,jab,49893225.0,-5.262,-2.772,6.177,-29.39,-69.09,122.87,-14.89,24.6
4,jab,49898225.0,-5.751,-1.834,6.144,-29.09,-105.3,136.1,-15.07,24.43
4,jab,49903225.0,-6.938,-1.58,6.172,-28.54,-134.82,150.73,-15.2,24.23
4,jab,49908225.0,-8.337,-1.451,5.588,-22.01,-157.99,164.09,-15.29,24.08
4,jab,49913225.0,-9.601,-1.389,5.004,-14.21,-170.73,175.98,-15.37,23.99
4,jab,49918225.0,-10.798,-1.475,4.429,-3.78,-171.83,185.91,-15.45,24.0
4,jab,49923225.0,-11.904,-1.47,4.233,7.26,-163.23,192.38,-15.48,24.11
4,jab,49928225.0,-12.694,-1.192,4.386,15.18,-146.65,194.45,-15.4,24.32
4,jab,49933225.0,-13.206,-0.713,4.602,17.32,-124.7,193.29,-15.19,24.63
4,jab,49938225.0,-13.374,-0.249,4.602,13.6,-98.48,189.76,-14.88,25.07
4,jab,49943225.0,-13.269,0.192,4.372,5.0,-69.33,184.02,-14.51,25.67
4,jab,49948225.0,-13.096,0.737,3.989,-5.79,-42.07,174.7,-14.04,26.4
4,jab,49953225.0,-12.378,0.967,3.874,-15.73,-18.17,164.45,-13.55,27.23
4,jab,49958225.0,-11.344,1.686,4.08,-24.39,-0.24,155.85,-12.95,28.06
4,jab,49963225.0,-10.08,2.49,4.367,-31.46,11.1,150.06,-12.25,28.82
4,jab,49968225.0,-8.734,3.266,4.817,-37.74,15.98,147.93,-11.51,29.45
4,jab,49973225.0,-7.594,3.682,5.152,-43.9,15.24,149.33,-10.78,29.94
4,jab,49978225.0,-6.651,4.175,5.602,-48.17,10.0,152.62,-10.07,30.26
4,jab,49983225.0,-5.827,4.463,6.005,-52.01,0.98,157.62,-9.39,30.42
4,jab,49988225.0,-5.272,4.678,6.22,-54.7,-10.37,163.66,-8.73,30.44
4,jab,49993225.0,-5.09,4.865,6.335,-54.09,-23.54,171.4,-8.07,30.37
4,jab,49998225.0,-5.143,4.999,6.144,-49.39,-35.18,178.96,-7.37,30.25
4,jab,50003225.0,-5.363,5.334,5.995,-41.46,-41.95,183.41,-6.59,30.11
4,jab,50008225.0,-5.626,6.067,5.641,-30.24,-45.37,184.51,-5.67,29.97
4,jab,50013225.0,-5.856,6.986,4.999,-17.93,-45.43,182.93,-4.55,29.84
4,jab,50018225.0,-5.957,7.877,4.027,-5.79,-41.95,178.78,-3.23,29.71
4,jab,50023225.0,-5.971,8.547,3.012,6.77,-36.34,172.87,-1.72,29.61
4,jab,50028225.0,-5.76,8.911,1.882,20.67,-28.05,166.28,-0.03,29.52
4,jab,50033225.0,-5.545,9.165,1.049,35.61,-17.99,160.61,1.82,29.47
4,jab,50038225.0,-4.951,9.443,0.8,51.16,-9.27,156.77,3.74,29.38
4,jab,50043225.0,-4.204,9.62,1.077,65.91,-4.51,155.73,5.66,29.24
4,jab,50048225.0,-3.247,10.013,1.666,77.99,-6.04,157.56,7.54,28.98
4,jab,50053225.0,-2.169,10.376,2.073,84.21,-12.01,163.23,9.37,28.58
4,jab,50058225.0,-1.231,10.477,2.26,85.24,-19.45,172.32,11.16,28.04
4,jab,50063225.0,-0.833,10.161,2.538,83.41,-29.15,182.32,12.86,27.43
4,jab,50068225.0,-0.852,9.697,2.571,79.7,-43.29,190.3,14.5,26.76
4,jab,50073225.0,-1.355,8.849,2.739,71.52,-54.27,192.56,16.02,26.13
4,jab,50078225.0,-1.93,8.327,3.026,62.68,-66.04,187.74,17.4,25.53
4,jab,50083225.0,-2.184,8.413,3.165,51.28,-76.16,177.8,18.7,24.92
4,jab,50088225.0,-2.251,8.906,3.261,35.91,-82.32,165.43,19.9,24.28
4,jab,50093225.0,-2.26,9.462,2.983,17.93,-83.66,152.93,21.04,23.64
4,jab,50098225.0,-2.265,10.104,2.485,1.83,-80.85,141.22,22.15,23.02
4,jab,50103225.0,-2.308,10.803,2.14,-12.8,-73.35,132.13,23.22,22.44
4,jab,50108225.0,-2.318,11.296,1.518,-23.54,-61.71,126.04,24.28,21.92
4,jab,50113225.0,-2.423,11.928,0.986,-29.33,-44.21,122.2,25.36,21.49
4,jab,50118225.0,-2.495,12.383,0.546,-31.89,-21.28,119.7,26.45,21.18
4,jab,50123225.0,-2.571,12.641,0.441,-32.99,6.1,116.04,27.52,21.02
4,jab,50128225.0,-2.782,12.488,0.656,-34.63,34.15,108.78,28.54,21.02
4,jab,50133225.0,-2.796,11.966,0.919,-35.18,60.24,95.12,29.51,21.16
4,jab,50138225.0,-2.586,11.401,1.192,-32.74,83.41,74.09,30.44,21.4
4,jab,50143225.0,-2.303,11.152,1.762,-28.23,103.6,47.62,31.31,21.71
4,jab,50148225.0,-1.863,11.296,2.591,-23.23,118.6,18.54,32.11,22.04
5,jab,54148248.0,-6.584,23.837,-3.045,118.05,162.56,-148.05,92.67,42.32
5,jab,54153248.0,-7.963,22.486,-3.189,124.45,198.17,-170.79,93.39,42.83
5,jab,54158249.0,-8.523,21.222,-3.548,131.83,236.04,-199.63,94.16,43.56
5,jab,54163249.0,-8.284,19.762,-3.725,141.1,275.73,-228.11,94.98,44.49
5,jab,54168249.0,-7.714,18.124,-3.251,150.61,309.76,-254.45,95.82,45.57
5,jab,54173249.0,-6.761,16.779,-2.289,159.7,332.5,-276.52,96.64,46.73
5,jab,54178250.0,-5.631,16.927,-3.093,161.4,344.94,-284.27,97.51,47.85
5,jab,54183250.0,-3.792,13.455,-1.963,149.45,354.76,-273.35,98.26,48.94
5,jab,54188250.0,-1.791,9.309,1.48,138.9,332.93,-263.48,98.59,49.81
5,jab,54193250.0,0.225,7.762,3.773,121.77,284.76,-247.32,98.5,50.18
5,jab,54198250.0,1.595,6.891,3.74,95.61,230.61,-224.15,98.23,50.07
5,jab,54203250.0,1.915,5.435,2.327,68.29,186.52,-196.59,97.93,49.63
5,jab,54208251.0,1.341,3.395,0.153,48.72,157.32,-166.16,97.96,48.97
5,jab,54213251.0,-0.096,0.8,-0.838,42.32,148.66,-140.67,98.94,48.82
5,jab,54218251.0,-1.365,-1.858,-0.79,51.46,152.74,-129.15,94.95,49.27
5,jab,54223251.0,-2.284,-3.95,0.124,73.17,166.89,-133.41,91.64,49.7
5,jab,54228251.0,-2.538,-5.44,1.465,105.12,187.56,-146.89,88.83,50.11
5,jab,54233251.0,-2.332,-7.053,2.844,146.04,209.27,-162.38,86.41,50.48
5,jab,54238252.0,-1.585,-8.772,3.515,191.65,228.78,-178.17,84.25,50.78
5,jab,54243252.0,-0.871,-10.831,4.18,236.77,250.24,-191.16,82.35,51.08
5,jab,54248252.0,-0.455,-13.192,5.023,281.1,266.4,-200.73,80.7,51.4
5,jab,54253252.0,0.244,-15.524,5.784,320.91,274.88,-204.33,79.27,51.7
5,jab,54258252.0,0.766,-17.866,6.962,351.89,278.11,-198.84,78.03,51.98
5,jab,54263253.0,0.694,-20.547,8.231,370.79,268.78,-183.6,76.92,52.22
5,jab,54268253.0,0.335,-23.32,8.811,377.93,248.66,-161.89,75.85,52.38
5,jab,54273253.0,-0.565,-26.245,8.265,370.49,222.68,-139.45,74.7,52.45
5,jab,54278253.0,-1.652,-28.343,7.317,358.11,193.48,-116.16,73.45,52.41
5,jab,54283253.0,-3.055,-28.797,6.287,333.66,158.9,-99.51,72.06,52.26
5,jab,54288253.0,-3.376,-27.907,4.156,307.93,119.15,-84.7,70.5,51.94
5,jab,54293253.0,-2.629,-26.078,1.652,286.65,76.59,-67.93,68.77,51.39
5,jab,54298253.0,-1.604,-24.22,-1.068,277.62,32.74,-43.17,66.9,50.6
5,jab,54303253.0,-1.192,-21.883,-3.031,276.71,-10.37,-14.33,64.96,49.6
5,jab,54308253.0,-1.413,-20.016,-4.348,277.5,-50.18,16.71,62.98,48.44
5,jab,54313253.0,-2.523,-18.842,-5.952,275.37,-88.54,42.74,60.92,47.18
5,jab,54318253.0,-3.62,-18.081,-8.384,270.37,-113.35,61.46,58.72,45.89
5,jab,54323253.0,-4.626,-17.64,-11.186,257.68,-120.61,72.44,56.36,44.63
5,jab,54328254.0,-6.033,-18.138,-15.663,246.95,-111.71,76.77,53.83,43.47
5,jab,54333254.0,-8.092,-17.856,-21.261,237.07,-83.66,71.65,51.12,42.52
5,jab,54338255.0,-9.553,-18.732,-25.086,229.09,-46.46,52.68,48.35,41.78
5,jab,54343255.0,-8.701,-20.327,-26.853,216.04,-8.72,25.3,45.59,41.19
5,jab,54348255.0,-6.44,-22.467,-22.932,193.48,20.43,-4.51,42.91,40.69
5,jab,54353255.0,-3.414,-22.85,-14.863,150.91,26.04,-28.54,40.33,40.15
5,jab,54358255.0,-0.292,-21.031,-7.432,79.39,11.71,-40.0,37.72,39.42
5,jab,54363255.0,1.465,-17.822,-1.762,-10.24,-16.04,-36.28,35.01,38.46
5,jab,54368255.0,2.332,-14.576,0.287,-93.54,-51.71,-19.21,32.07,37.25
5,jab,54373255.0,1.949,-12.086,-0.512,-152.8,-83.29,3.23,28.83,35.92
5,jab,54378255.0,0.239,-10.573,-2.504,-180.49,-104.82,21.4,25.31,34.66
5,jab,54383255.0,-1.499,-8.997,-5.114,-178.78,-116.89,34.09,21.53,33.56
5,jab,54388255.0,-2.897,-7.968,-6.914,-157.32,-114.82,42.93,17.71,32.63
5,jab,54393255.0,-3.553,-7.575,-7.705,-126.95,-104.51,48.72,14.02,31.83
5,jab,54398255.0,-3.754,-7.906,-6.967,-95.98,-92.13,52.8,10.65,31.14
5,jab,54403255.0,-3.414,-8.485,-5.861,-70.98,-83.6,55.85,7.59,30.47
5,jab,54408255.0,-3.553,-9.199,-4.266,-55.24,-79.7,58.72,4.87,29.86
5,jab,54413255.0,-3.543,-9.989,-3.4,-49.33,-80.43,60.49,2.36,29.24
5,jab,54418255.0,-3.692,-10.889,-2.672,-52.2,-79.45,61.16,-0.02,28.63
5,jab,54423255.0,-3.931,-11.569,-2.279,-57.44,-82.44,61.28,-2.33,28.02
5,jab,54428255.0,-4.061,-11.985,-2.433,-64.21,-81.71,60.24,-4.62,27.43
5,jab,54433255.0,-4.276,-12.163,-2.763,-68.78,-79.09,57.8,-6.92,26.87
5,jab,54438255.0,-4.492,-12.373,-3.122,-72.93,-68.48,54.27,-9.23,26.38
5,jab,54443255.0,-4.673,-12.512,-3.405,-73.96,-56.71,48.41,-11.51,25.97
5,jab,54448255.0,-4.271,-12.297,-3.247,-75.12,-39.09,43.35,-13.74,25.63
5,jab,54453255.0,-4.592,-12.306,-2.126,-84.15,-21.95,32.13,-15.88,25.42
5,jab,54458255.0,-4.721,-12.383,-1.901,-90.12,-14.82,27.62,-17.97,25.25
5,jab,54463255.0,-4.97,-11.698,-0.958,-100.98,-11.4,19.88,-20.0,25.15
5,jab,54468255.0,-5.018,-10.927,0.124,-118.11,-12.01,13.05,-21.97,25.08
5,jab,54473255.0,-4.592,-10.305,0.273,-137.56,-17.13,11.59,-23.97,24.97
5,jab,54478255.0,-4.693,-9.787,0.038,-148.84,-29.33,14.94,-26.02,24.84
5,jab,54483255.0,-4.195,-9.199,-0.417,-153.23,-42.87,23.35,-28.1,24.63
5,jab,54488255.0,-4.104,-8.533,-0.316,-154.51,-55.37,36.22,-30.14,24.38
5,jab,54493256.0,-4.209,-8.179,-0.072,-155.55,-69.63,50.37,-32.11,24.09
5,jab,54498256.0,-4.266,-8.021,-0.187,-156.52,-86.1,63.66,-34.06,23.75
5,jab,54503256.0,-4.884,-7.92,0.144,-157.32,-99.76,76.16,-35.93,23.42
5,jab,54508256.0,-5.425,-7.58,-0.206,-158.78,-111.65,86.22,-37.82,23.11
5,jab,54513256.0,-5.976,-7.111,-0.8,-162.01,-117.32,93.9,-39.78,22.87
5,jab,54518256.0,-6.771,-6.464,-1.106,-163.78,-117.44,99.7,-41.79,22.76
5,jab,54523256.0,-7.24,-5.665,-1.805,-163.17,-116.04,103.9,-43.9,22.75
5,jab,54528256.0,-7.278,-4.712,-2.705,-161.83,-111.1,106.95,-46.22,22.81
5,jab,54533256.0,-7.575,-3.677,-2.691,-158.54,-107.87,109.88,-48.59,23.01
5,jab,54538256.0,-7.245,-2.6,-3.414,-155.18,-110.3,113.29,-51.23,23.19
5,jab,54543256.0,-6.819,-1.786,-3.572,-152.01,-116.46,116.52,-54.02,23.35
5,jab,54548256.0,-6.005,-0.991,-3.965,-148.9,-126.46,122.32,-56.99,23.38
5,jab,54553256.0,-5.282,-0.445,-4.353,-144.76,-136.83,132.62,-60.04,23.25
5,jab,54558256.0,-4.731,-0.091,-4.721,-140.06,-147.5,145.91,-63.11,22.96
5,jab,54563256.0,-4.535,0.062,-4.894,-136.46,-157.26,160.55,-58.93,22.59
5,jab,54568256.0,-4.712,0.086,-4.779,-134.7,-166.4,174.09,-54.83,22.21
5,jab,54573256.0,-5.215,-0.182,-4.64,-134.45,-175.18,185.85,-57.95,21.88
5,jab,54578256.0,-6.062,-0.402,-4.53,-134.76,-181.1,194.88,-60.95,21.62
5,jab,54583256.0,-7.001,-0.359,-4.401,-136.77,-181.77,200.3,-63.91,21.45
5,jab,54588256.0,-7.863,-0.005,-4.305,-140.79,-178.96,201.71,-66.92,21.37
5,jab,54593256.0,-8.844,0.699,-4.492,-147.01,-172.87,199.63,-62.88,21.35
5,jab,54598256.0,-9.28,1.279,-4.755,-150.3,-167.87,196.95,-59.06,21.34
5,jab,54603256.0,-9.519,2.04,-4.942,-152.07,-162.26,193.05,-55.47,21.33
5,jab,54608256.0,-9.491,3.036,-4.846,-151.52,-160.49,190.98,-52.14,21.3
5,jab,54613256.0,-9.131,4.147,-4.391,-150.43,-162.99,192.2,-49.1,21.2
5,jab,54618256.0,-8.566,5.243,-3.567,-149.63,-170.85,199.7,-46.37,21.01
5,jab,54623256.0,-8.145,5.899,-2.859,-149.63,-179.02,211.1,-43.86,20.74
5,jab,54628256.0,-7.843,6.483,-2.342,-150.37,-186.83,226.04,-41.52,20.38
5,jab,54633256.0,-7.906,7.082,-2.251,-152.44,-191.16,242.38,-39.29,19.97
5,jab,54638256.0,-8.566,7.417,-1.925,-153.35,-190.91,257.44,-37.16,19.6
5,jab,54643256.0,-8.825,7.705,-2.638,-151.34,-189.27,268.11,-34.98,19.23
5,jab,54648256.0,-9.376,7.69,-3.06,-147.2,-179.82,273.84,-32.77,18.93
5,jab,54653256.0,-9.855,7.695,-3.323,-138.9,-168.72,273.17,-30.53,18.72
5,jab,54658256.0,-9.888,7.891,-3.553,-127.8,-156.1,266.52,-28.26,18.56
5,jab,54663256.0,-9.716,8.241,-3.472,-116.34,-142.38,255.73,-26.01,18.44
5,jab,54668256.0,-9.357,8.748,-3.156,-106.28,-130.12,241.59,-23.81,18.33
5,jab,54673256.0,-8.724,9.222,-2.811,-98.48,-120.55,226.04,-21.68,18.22
5,jab,54678256.0,-7.872,9.668,-2.485,-93.29,-112.87,211.4,-19.61,18.07
5,jab,54683256.0,-6.962,10.084,-2.169,-90.06,-107.56,198.9,-17.62,17.86
5,jab,54688256.0,-6.249,10.458,-1.609,-87.2,-104.7,189.33,-15.72,17.6
5,jab,54693256.0,-5.727,10.769,-0.742,-85.12,-106.65,183.05,-13.94,17.28
5,jab,54698256.0,-5.195,10.994,0.321,-84.51,-114.45,180.0,-12.31,16.88
5,jab,54703256.0,-4.621,11.344,1.168,-86.89,-124.02,180.0,-10.81,16.38
5,jab,54708256.0,-4.334,11.722,1.781,-91.4,-133.78,183.35,-9.41,15.8
5,jab,54713256.0,-4.18,12.052,1.939,-96.95,-143.23,188.96,-8.08,15.16
5,jab,54718256.0,-4.3,12.153,1.642,-101.65,-149.02,194.15,-6.77,14.51
5,jab,54723256.0,-4.678,12.201,1.293,-103.11,-152.2,196.34,-5.46,13.89
5,jab,54728256.0,-4.899,12.301,0.915,-100.91,-153.96,195.18,-4.13,13.29
5,jab,54733256.0,-4.899,12.373,0.565,-96.4,-151.28,191.1,-2.78,12.72
5,jab,54738256.0,-5.047,12.368,0.373,-90.55,-143.6,183.9,-1.4,12.2
5,jab,54743256.0,-5.109,12.33,0.321,-83.6,-135.37,172.93,-0.01,11.75
6,jab,58823301.0,5.607,24.565,-0.718,57.01,-24.57,-96.65,90.15,11.37
6,jab,58828301.0,5.593,24.871,-1.274,57.87,-33.66,-88.78,90.49,10.72
6,jab,58833301.0,5.507,24.928,-1.772,60.18,-44.57,-81.1,90.86,10.04
6,jab,58838301.0,5.464,25.024,-2.126,62.5,-55.85,-72.87,91.25,9.32
6,jab,58843301.0,5.315,25.302,-2.653,62.93,-66.83,-63.29,91.65,8.57
6,jab,58848301.0,4.99,25.297,-2.921,58.48,-78.66,-53.9,92.03,7.79
6,jab,58853301.0,4.659,24.986,-3.371,52.01,-89.15,-45.55,92.4,6.99
6,jab,58858301.0,4.506,24.703,-4.003,45.12,-96.83,-39.7,92.76,6.17
6,jab,58863301.0,4.391,24.287,-4.535,37.87,-102.01,-36.65,93.1,5.35
6,jab,58868301.0,4.424,23.669,-4.966,30.18,-106.04,-37.13,93.42,4.51
6,jab,58873301.0,4.626,22.74,-5.219,21.04,-107.32,-41.1,93.72,3.67
6,jab,58878301.0,4.831,21.706,-5.296,10.55,-107.13,-49.39,93.97,2.83
6,jab,58883301.0,5.2,20.624,-5.646,-2.68,-104.88,-60.12,94.18,1.99
6,jab,58888301.0,5.329,19.273,-5.674,-18.96,-97.62,-71.34,94.33,1.17
6,jab,58893301.0,5.981,17.822,-6.507,-39.27,-88.54,-81.52,94.46,0.36
6,jab,58898301.0,6.014,15.562,-6.694,-66.1,-66.95,-91.83,94.51,-0.36
6,jab,58903301.0,6.105,13.111,-6.311,-92.56,-47.38,-103.6,94.48,-1.04
6,jab,58908302.0,6.249,10.53,-5.382,-117.93,-30.12,-115.3,94.35,-1.73
6,jab,58913302.0,6.531,8.15,-3.869,-140.55,-17.07,-127.26,94.09,-2.49
6,jab,58918302.0,7.116,5.617,-1.504,-156.65,-11.04,-141.04,93.54,-3.51
6,jab,58923302.0,7.59,3.357,1.389,-161.04,-20.91,-160.43,92.23,-4.83
6,jab,58928302.0,7.666,1.298,3.922,-153.78,-46.83,-186.95,89.99,-6.2
6,jab,58933302.0,7.532,-0.268,5.99,-132.26,-84.39,-218.72,87.5,-7.52
6,jab,58938302.0,7.489,-1.125,6.622,-95.18,-129.09,-250.24,85.09,-8.96
6,jab,58943302.0,7.096,-1.757,6.613,-44.76,-170.49,-271.46,82.87,-10.54
6,jab,58948302.0,6.651,-2.969,6.981,15.37,-206.04,-273.05,80.82,-12.16
6,jab,58953302.0,6.302,-5.703,8.068,73.54,-228.05,-255.06,78.86,-13.69
6,jab,58958302.0,5.181,-9.96,10.999,122.26,-242.01,-230.37,77.04,-14.99
6,jab,58963302.0,3.668,-15.304,14.475,153.54,-261.22,-213.29,75.32,-16.16
6,jab,58968302.0,1.58,-20.997,18.009,162.32,-281.28,-211.16,73.62,-17.28
6,jab,58973302.0,-0.91,-26.111,20.763,153.66,-306.77,-225.06,71.87,-18.41
6,jab,58978302.0,-3.318,-30.56,22.754,131.59,-331.83,-250.79,70.01,-19.57
6,jab,58983302.0,-5.813,-33.94,24.598,100.12,-351.52,-281.28,68.02,-20.74
6,jab,58988302.0,-8.461,-35.908,26.585,64.94,-374.88,-307.56,65.91,-21.95
6,jab,58993302.0,-10.903,-36.43,28.328,30.0,-396.28,-325.67,63.7,-23.19
6,jab,58998302.0,-13.695,-35.291,29.87,-1.89,-416.83,-334.57,61.42,-24.44
6,jab,59003302.0,-16.525,-32.259,31.498,-26.52,-441.83,-332.26,59.15,-25.71
6,jab,59008302.0,-19.776,-26.983,31.589,-43.11,-459.39,-313.23,56.94,-26.94
6,jab,59013302.0,-23.736,-20.748,28.994,-52.74,-444.27,-277.2,54.83,-27.9
6,jab,59018302.0,-28.266,-14.988,22.347,-55.06,-389.45,-240.73,52.79,-28.32
6,jab,59023302.0,-33.758,-11.267,13.891,-43.17,-293.05,-218.11,50.74,-27.95
6,jab,59028302.0,-40.069,-6.488,-1.058,-17.13,-167.13,-206.34,47.66,-26.6
6,jab,59033302.0,-48.636,-3.548,-16.812,33.29,-11.28,-199.39,43.51,-24.71
6,jab,59038302.0,-57.336,-2.102,-28.989,116.77,136.65,-193.6,39.69,-22.28
6,jab,59043302.0,-58.749,-5.981,-29.995,202.01,252.62,-178.41,36.51,-19.35
6,jab,59048302.0,-49.603,-12.617,-19.68,246.71,339.15,-166.95,34.04,-16.01
6,jab,59053302.0,-35.65,-17.128,-3.462,216.16,401.46,-162.2,32.39,-12.44
6,jab,59058302.0,-21.864,-17.813,9.443,127.8,406.83,-161.77,31.13,-9.25
6,jab,59063302.0,-8.274,-14.083,16.027,18.96,375.43,-156.46,29.78,-6.8
6,jab,59068302.0,1.815,-8.126,18.426,-71.89,304.88,-123.35,28.35,-5.28
6,jab,59073302.0,8.04,-1.7,16.822,-127.44,214.21,-51.34,27.04,-4.63
6,jab,59078302.0,9.213,2.289,13.637,-149.82,127.87,53.11,25.96,-4.58
6,jab,59083302.0,5.741,2.562,10.266,-146.59,55.06,160.43,25.0,-4.79
6,jab,59088302.0,0.239,-0.383,7.149,-125.67,2.38,242.8,23.83,-4.72
6,jab,59093302.0,-4.975,-4.128,6.124,-97.38,-28.41,288.23,22.19,-4.09
6,jab,59098302.0,-7.973,-6.402,4.827,-73.78,-45.91,302.26,20.33,-3.34
6,jab,59103302.0,-8.959,-7.685,4.041,-56.89,-43.11,302.13,18.4,-2.56
6,jab,59108302.0,-9.51,-8.097,4.022,-48.48,-24.39,294.94,16.52,-1.7
6,jab,59113302.0,-10.104,-8.203,4.338,-47.93,2.68,283.66,14.71,-0.71
6,jab,59118302.0,-10.874,-8.442,4.539,-50.79,33.11,268.96,12.93,0.44
6,jab,59123302.0,-11.813,-8.633,4.784,-52.38,65.0,248.23,11.2,1.75
6,jab,59128302.0,-12.479,-8.6,4.769,-52.26,96.65,219.33,9.5,3.23
6,jab,59133302.0,-12.929,-8.068,4.511,-48.35,127.87,185.37,7.86,4.88
6,jab,59138302.0,-13.053,-6.914,4.808,-38.29,151.04,150.24,6.41,6.67
6,jab,59143302.0,-12.699,-5.507,5.277,-33.9,171.22,115.91,5.19,8.55
6,jab,59148302.0,-11.832,-4.424,5.909,-31.28,184.57,87.32,4.2,10.45
6,jab,59153302.0,-10.314,-3.175,6.732,-31.34,187.2,67.99,3.45,12.24
6,jab,59158302.0,-8.643,-1.834,7.719,-36.89,177.44,61.83,2.94,13.81
6,jab,59163302.0,-7.393,-0.757,8.643,-47.2,150.55,67.2,2.55,15.08
6,jab,59168302.0,-6.483,0.148,9.29,-59.82,109.09,80.61,2.22,16.01
6,jab,59173303.0,-6.215,0.991,9.759,-71.52,58.72,100.49,1.94,16.63
6,jab,59178303.0,-6.115,1.844,9.85,-78.66,8.66,127.44,1.73,16.96
6,jab,59183303.0,-6.263,2.686,9.342,-79.94,-33.72,158.66,1.62,17.12
6,jab,59188303.0,-7.005,3.314,8.452,-76.04,-64.09,190.0,1.65,17.21
6,jab,59193303.0,-8.294,3.505,7.465,-68.9,-79.21,215.73,1.78,17.38
6,jab,59198303.0,-9.95,3.261,6.637,-61.22,-79.57,230.91,1.97,17.71
6,jab,59203303.0,-11.502,2.969,5.871,-54.39,-68.54,234.7,2.2,18.23
6,jab,59208303.0,-12.795,2.71,5.114,-47.74,-45.67,226.71,2.48,18.95
6,jab,59213303.0,-13.92,2.5,4.731,-40.12,-15.24,207.44,2.79,19.88
6,jab,59218303.0,-14.418,2.61,4.506,-34.09,17.2,177.8,3.17,20.97
6,jab,59223303.0,-14.274,3.041,4.472,-29.45,49.94,143.29,3.64,22.18
6,jab,59228303.0,-13.144,3.85,4.401,-25.0,78.23,108.6,4.27,23.44
6,jab,59233303.0,-11.31,5.004,4.472,-22.68,105.91,79.39,5.04,24.68
6,jab,59238303.0,-9.175,6.33,4.908,-18.66,119.57,59.63,5.89,25.75
6,jab,59243303.0,-7.355,7.432,5.387,-16.04,125.12,51.04,6.78,26.62
6,jab,59248303.0,-5.871,8.207,5.871,-15.3,125.0,50.98,7.65,27.3
6,jab,59253303.0,-4.559,8.801,6.268,-16.71,117.74,57.26,8.51,27.79
6,jab,59258303.0,-3.936,8.988,6.603,-20.24,108.78,68.66,9.32,28.16
6,jab,59263304.0,-3.625,9.127,6.536,-20.73,92.44,82.26,10.12,28.4
6,jab,59268304.0,-3.673,9.117,5.957,-20.98,78.96,97.32,10.95,28.6
6,jab,59273304.0,-4.353,8.844,5.516,-20.43,71.34,110.12,11.79,28.83
6,jab,59278304.0,-5.43,8.408,4.97,-18.54,69.33,118.29,12.65,29.17
6,jab,59283304.0,-6.584,8.04,4.458,-15.43,73.23,119.94,13.54,29.66
6,jab,59288304.0,-7.408,7.992,3.682,-12.2,83.05,114.88,14.52,30.27
6,jab,59293304.0,-7.848,8.222,2.658,-9.39,98.41,104.82,15.62,31.0
6,jab,59298304.0,-7.934,8.72,1.408,-7.01,119.21,91.59,16.89,31.8
6,jab,59303304.0,-7.633,9.179,0.211,-4.33,141.34,76.4,18.31,32.65
6,jab,59308304.0,-6.986,9.366,-0.67,-0.06,161.83,61.59,19.82,33.52
6,jab,59313304.0,-6.129,9.529,-1.149,4.76,178.48,48.9,21.39,34.38
6,jab,59318304.0,-5.018,9.725,-1.03,8.23,190.61,40.0,22.92,35.17
6,jab,59323304.0,-3.97,10.084,-0.397,8.17,196.83,35.0,24.35,35.86
6,jab,59328304.0,-2.959,10.262,0.297,4.33,195.91,34.15,25.65,36.42
6,jab,59333304.0,-2.011,10.319,0.795,-2.62,190.3,37.13,26.83,36.85
6,jab,59338304.0,-1.283,10.324,1.063,-11.22,180.85,43.05,27.92,37.14
6,jab,59343304.0,-0.723,10.396,1.144,-19.94,169.57,50.98,28.94,37.3
6,jab,59348304.0,-0.407,10.362,1.01,-26.89,157.01,59.88,29.92,37.37
6,jab,59353304.0,-0.273,10.238,0.996,-31.46,143.17,68.66,30.86,37.36
6,jab,59358304.0,-0.292,10.008,1.221,-33.9,129.15,75.43,31.73,37.28
6,jab,59363304.0,-0.369,10.022,1.623,-34.94,115.85,79.39,32.54,37.14
6,jab,59368304.0,-0.436,10.381,2.045,-35.18,102.32,80.61,33.3,36.95
6,jab,59373304.0,-0.584,10.994,2.049,-35.67,90.98,79.27,34.05,36.71
6,jab,59378304.0,-0.843,11.439,1.815,-35.06,82.07,75.73,34.81,36.46
6,jab,59383304.0,-1.068,11.789,1.379,-31.95,75.06,69.76,35.63,36.2
6,jab,59388304.0,-1.14,12.081,1.073,-24.33,69.45,61.89,36.49,35.93
6,jab,59393304.0,-0.986,12.225,1.087,-16.65,65.06,56.34,37.38,35.62
6,jab,59398304.0,-0.852,12.373,1.269,-10.49,61.1,53.41,38.26,35.29
6,jab,59403304.0,-0.522,12.617,1.451,-5.0,57.2,51.83,39.14,34.91
6,jab,59408304.0,-0.268,12.771,1.638,-3.23,55.18,52.01,40.0,34.5
7,jab,63588354.0,-0.8,24.488,-0.891,2.56,98.9,-95.06,87.95,23.51
7,jab,63593354.0,0.752,25.604,-0.766,1.95,107.26,-107.13,88.04,23.53
7,jab,63598354.0,2.562,26.528,-1.039,0.98,109.57,-113.11,88.12,23.49
7,jab,63603354.0,4.175,26.916,-0.766,-0.55,109.15,-113.54,88.19,23.38
7,jab,63608354.0,5.851,27.16,-0.321,1.04,95.24,-109.76,88.25,23.13
7,jab,63613354.0,7.714,27.141,-0.34,0.43,76.65,-103.9,88.3,22.73
7,jab,63618354.0,9.452,26.911,-0.263,0.18,55.91,-96.89,88.34,22.16
7,jab,63623354.0,10.975,26.26,0.019,0.49,34.45,-90.18,88.38,21.43
7,jab,63628355.0,12.531,25.604,0.699,4.09,6.46,-86.16,88.4,20.52
7,jab,63633355.0,13.891,24.627,1.164,5.91,-19.27,-85.37,88.41,19.42
7,jab,63638356.0,14.734,23.377,1.451,5.0,-43.66,-88.29,88.39,18.18
7,jab,63643356.0,15.045,21.644,1.604,0.61,-66.71,-95.24,88.34,16.79
7,jab,63648356.0,14.954,19.465,1.738,-8.72,-86.65,-107.26,88.23,15.28
7,jab,63653356.0,14.729,17.138,2.021,-24.33,-101.95,-124.33,88.01,13.67
7,jab,63658356.0,14.499,14.93,2.298,-48.41,-113.35,-144.09,87.64,11.96
7,jab,63663356.0,13.513,12.268,2.514,-80.85,-116.65,-164.76,87.06,10.21
7,jab,63668356.0,11.856,9.357,2.016,-117.5,-111.65,-184.94,86.3,8.44
7,jab,63673356.0,9.098,5.741,1.805,-158.17,-94.15,-205.91,85.25,6.67
7,jab,63678356.0,6.488,2.346,0.158,-192.44,-68.05,-225.55,84.32,4.81
7,jab,63683356.0,3.261,-1.317,-0.924,-213.66,-20.24,-239.09,79.09,3.34
7,jab,63688357.0,-0.46,-5.013,-0.848,-207.93,42.99,-239.82,74.5,3.58
7,jab,63693357.0,-4.056,-7.848,0.948,-177.01,106.16,-231.4,70.48,4.58
7,jab,63698358.0,-5.976,-9.012,3.314,-128.17,147.56,-222.93,67.04,5.84
7,jab,63703358.0,-4.745,-8.94,4.745,-75.06,163.66,-216.89,64.09,7.03
7,jab,63708359.0,-1.451,-8.839,6.005,-24.27,164.15,-209.63,61.58,7.85
7,jab,63713359.0,1.279,-10.238,8.116,24.82,153.54,-197.74,59.44,8.33
7,jab,63718359.0,2.605,-13.163,10.252,76.89,120.73,-185.67,57.58,8.58
7,jab,63723359.0,1.398,-16.86,12.536,127.13,75.0,-181.28,55.99,8.7
7,jab,63728359.0,-1.882,-20.083,14.959,175.0,10.37,-191.52,54.66,8.66
7,jab,63733359.0,-5.42,-22.601,16.769,220.18,-77.07,-214.45,53.57,8.33
7,jab,63738359.0,-8.523,-24.574,16.467,256.95,-170.06,-240.06,52.64,7.65
7,jab,63743359.0,-11.593,-26.264,15.098,285.0,-244.88,-254.57,51.78,6.72
7,jab,63748359.0,-14.351,-28.237,12.905,302.74,-295.49,-250.3,50.92,5.63
7,jab,63753359.0,-17.727,-30.138,10.506,307.5,-309.15,-227.2,49.99,4.59
7,jab,63758359.0,-21.792,-31.168,8.188,298.29,-288.48,-195.73,48.95,3.76
7,jab,63763360.0,-24.809,-30.765,5.224,273.66,-234.57,-172.07,47.7,3.31
7,jab,63768360.0,-28.903,-29.516,1.489,235.18,-153.23,-160.43,46.16,3.38
7,jab,63773360.0,-32.882,-27.73,-4.099,199.7,-57.38,-169.57,44.25,4.02
7,jab,63778360.0,-35.784,-24.895,-10.616,180.0,44.63,-197.38,41.98,5.22
7,jab,63783360.0,-36.378,-21.284,-16.573,183.72,142.26,-233.9,39.48,6.88
7,jab,63788360.0,-36.741,-17.099,-19.537,201.16,219.39,-276.34,36.9,8.91
7,jab,63793360.0,-35.712,-10.439,-25.053,229.33,263.66,-294.51,34.14,11.08
7,jab,63798360.0,-34.261,-4.616,-28.74,276.83,292.2,-274.02,31.4,13.28
7,jab,63803360.0,-31.24,-1.58,-26.652,291.16,293.9,-236.16,28.66,15.45
7,jab,63808360.0,-24.622,-5.794,-20.964,261.83,275.06,-174.45,26.08,17.46
7,jab,63813360.0,-17.315,-12.895,-12.426,208.96,238.41,-103.96,23.91,19.16
7,jab,63818360.0,-12.555,-17.655,-2.466,126.89,175.0,-50.91,22.09,20.33
7,jab,63823360.0,-7.91,-18.44,5.08,25.79,96.04,-18.17,20.28,20.85
7,jab,63828360.0,-3.381,-15.558,8.973,-77.56,13.29,2.68,18.3,20.71
7,jab,63833360.0,0.421,-10.544,9.309,-159.63,-59.09,24.88,16.18,19.97
7,jab,63838360.0,3.256,-5.569,7.14,-210.79,-125.91,61.34,14.06,18.56
7,jab,63843361.0,4.295,-1.566,4.338,-232.8,-190.91,112.93,12.24,16.39
7,jab,63848361.0,3.108,0.632,1.642,-227.56,-246.89,175.18,11.3,13.64
7,jab,63853362.0,0.34,1.006,-0.402,-200.91,-291.04,235.0,12.33,11.6
7,jab,63858362.0,-3.323,0.168,-1.259,-163.17,-319.45,282.26,14.73,11.18
7,jab,63863362.0,-6.891,-1.609,-1.14,-124.82,-331.52,313.29,11.32,10.81
7,jab,63868362.0,-9.352,-2.729,-0.532,-91.95,-328.11,328.72,8.62,10.46
7,jab,63873363.0,-11.813,-3.701,0.848,-69.45,-303.41,330.37,6.57,10.21
7,jab,63878364.0,-13.58,-4.477,1.757,-53.23,-275.61,323.05,4.8,10.06
7,jab,63883364.0,-14.418,-5.339,1.81,-43.11,-239.63,311.1,3.07,10.06
7,jab,63888364.0,-14.997,-6.062,1.729,-33.35,-195.61,297.93,1.36,10.24
7,jab,63893364.0,-15.179,-6.752,1.547,-29.57,-143.78,280.49,-0.35,10.64
7,jab,63898364.0,-15.797,-8.423,2.136,-26.77,-85.12,258.9,-1.99,11.24
7,jab,63903364.0,-15.783,-9.625,2.054,-17.26,-32.38,229.51,-3.59,12.01
7,jab,63908364.0,-15.232,-9.95,2.294,-9.82,23.41,196.77,-5.11,13.01
7,jab,63913364.0,-14.571,-9.486,3.194,-8.72,77.26,162.07,-6.48,14.24
7,jab,63918364.0,-13.628,-8.586,4.31,-11.46,122.68,123.48,-7.67,15.65
7,jab,63923364.0,-12.115,-7.082,5.387,-12.13,144.39,83.72,-8.63,17.12
7,jab,63928364.0,-9.936,-5.43,5.947,-14.02,149.82,49.51,-9.38,18.53
7,jab,63933364.0,-7.977,-4.199,7.489,-16.1,138.05,26.28,-9.85,19.7
7,jab,63938364.0,-5.622,-2.72,8.514,-17.68,105.43,14.82,-10.1,20.46
7,jab,63943365.0,-3.424,-1.226,9.309,-22.8,64.82,15.85,-10.16,20.77
7,jab,63948365.0,-1.81,0.034,10.065,-31.1,18.41,28.96,-10.1,20.65
7,jab,63953366.0,-0.694,1.293,10.175,-39.94,-32.32,54.21,-9.95,20.16
7,jab,63958366.0,-0.263,2.433,9.883,-49.21,-78.96,89.76,-9.72,19.4
7,jab,63963366.0,-0.972,3.117,9.318,-56.28,-116.4,132.13,-9.43,18.55
7,jab,63968366.0,-2.988,3.338,8.365,-60.0,-141.16,174.51,-9.1,17.86
7,jab,63973366.0,-5.65,3.16,7.269,-60.06,-150.98,208.35,-8.74,17.47
7,jab,63978366.0,-8.001,2.902,6.057,-56.46,-146.95,227.93,-8.33,17.4
7,jab,63983366.0,-10.051,2.658,5.037,-51.34,-132.2,232.74,-7.86,17.61
7,jab,63988366.0,-11.631,2.471,3.893,-45.24,-107.07,224.57,-7.28,18.1
7,jab,63993366.0,-12.828,2.313,2.988,-39.02,-73.9,206.46,-6.57,18.85
7,jab,63998366.0,-13.36,2.174,2.16,-33.29,-39.39,180.24,-5.7,19.82
7,jab,64003367.0,-13.206,2.246,1.772,-27.99,-5.12,149.39,-4.68,20.96
7,jab,64008367.0,-12.22,2.677,1.638,-23.29,24.45,118.11,-3.53,22.17
7,jab,64013367.0,-10.511,3.323,1.911,-20.67,50.79,91.28,-2.36,23.37
7,jab,64018367.0,-8.921,4.075,2.528,-20.91,72.87,72.56,-1.25,24.5
7,jab,64023367.0,-7.618,4.439,3.587,-24.09,89.7,60.98,-0.33,25.51
7,jab,64028367.0,-6.613,4.645,4.831,-29.76,99.21,54.33,0.41,26.38
7,jab,64033367.0,-5.856,4.922,5.962,-37.26,100.61,52.8,1.01,27.09
7,jab,64038367.0,-5.31,5.296,6.833,-45.0,95.06,55.67,1.53,27.64
7,jab,64043367.0,-4.961,5.684,7.417,-51.52,85.98,62.26,1.99,28.07
7,jab,64048367.0,-4.731,6.038,7.585,-55.37,74.82,70.67,2.45,28.4
7,jab,64053367.0,-4.755,6.57,7.422,-56.59,64.27,78.9,2.96,28.65
7,jab,64058367.0,-5.085,7.092,6.709,-55.3,57.2,85.43,3.56,28.91
7,jab,64063367.0,-5.856,7.479,5.698,-51.34,56.22,89.88,4.29,29.25
7,jab,64068367.0,-6.747,7.982,4.53,-43.9,62.32,90.37,5.2,29.69
7,jab,64073367.0,-7.575,8.437,3.165,-34.63,73.29,85.43,6.31,30.26
7,jab,64078367.0,-8.365,8.815,1.872,-23.9,86.89,76.1,7.63,30.94
7,jab,64083367.0,-8.739,9.222,0.579,-11.4,100.91,63.84,9.15,31.68
7,jab,64088367.0,-8.605,9.491,-0.441,2.87,115.24,50.85,10.83,32.46
7,jab,64093367.0,-8.068,9.629,-0.943,17.99,128.23,38.66,12.62,33.23
7,jab,64098367.0,-7.163,9.869,-0.785,30.43,137.56,28.35,14.4,33.96
7,jab,64103367.0,-6.297,9.95,-0.211,38.72,142.56,22.38,16.13,34.63
7,jab,64108367.0,-5.44,9.974,0.742,42.2,140.85,20.18,17.73,35.19
7,jab,64113367.0,-4.932,9.682,1.805,41.77,131.95,21.65,19.17,35.67
7,jab,64118367.0,-4.635,9.467,2.883,37.5,118.96,26.46,20.43,36.04
7,jab,64123367.0,-4.525,9.385,3.903,28.54,104.94,33.29,21.51,36.31
7,jab,64128367.0,-4.439,9.495,4.654,15.43,89.76,41.89,22.43,36.48
7,jab,64133367.0,-4.348,9.744,4.827,1.83,74.88,51.46,23.27,36.56
7,jab,64138367.0,-4.314,10.233,4.587,-8.72,61.71,62.44,24.08,36.55
7,jab,64143367.0,-4.209,10.86,4.008,-15.3,51.04,74.21,24.91,36.47
7,jab,64148367.0,-4.238,11.478,3.673,-17.07,42.8,85.91,25.78,36.33
7,jab,64153367.0,-3.845,12.244,2.753,-13.84,32.07,96.16,26.74,36.11
7,jab,64158367.0,-3.524,12.713,2.078,-12.32,34.09,105.91,27.76,35.86
7,jab,64163367.0,-3.567,12.847,1.494,-7.13,41.1,115.06,28.84,35.65
7,jab,64168367.0,-4.008,12.718,1.269,1.04,46.83,118.78,29.95,35.51
7,jab,64173367.0,-4.578,12.359,1.245,10.67,52.5,116.71,31.09,35.47
7,jab,64178367.0,-4.721,11.861,0.335,19.21,61.89,108.84,32.33,35.49
7,jab,64183367.0,-5.076,11.459,-0.148,27.8,76.46,94.57,33.63,35.64
8,jab,68183401.0,-3.122,10.276,1.681,31.95,-38.11,-12.74,90.58,30.26
8,jab,68188401.0,-2.978,10.568,1.733,30.24,-38.9,-12.74,90.53,29.77
8,jab,68193401.0,-2.782,10.908,1.748,27.87,-40.3,-12.26,90.48,29.26
8,jab,68198401.0,-2.619,11.21,1.614,25.49,-41.83,-11.1,90.43,28.73
8,jab,68203401.0,-2.667,11.473,1.451,23.84,-42.99,-10.37,90.39,28.21
8,jab,68208401.0,-2.883,11.712,1.298,22.62,-43.11,-10.85,90.37,27.71
8,jab,68213401.0,-3.007,11.861,1.216,22.32,-43.72,-13.66,90.35,27.22
8,jab,68218401.0,-3.065,12.172,1.015,22.68,-44.63,-19.09,90.36,26.74
8,jab,68223401.0,-3.151,12.622,0.833,23.29,-45.61,-25.55,90.39,26.26
8,jab,68228401.0,-3.247,13.082,0.512,24.21,-46.4,-32.07,90.46,25.79
8,jab,68233401.0,-3.328,13.384,0.283,25.06,-46.83,-37.44,90.55,25.32
8,jab,68238401.0,-3.515,13.546,0.244,25.61,-45.37,-41.34,90.64,24.88
8,jab,68243401.0,-3.51,13.805,0.153,24.88,-43.41,-43.84,90.74,24.46
8,jab,68248401.0,-3.419,14.087,0.101,22.68,-40.37,-43.66,90.83,24.04
8,jab,68253401.0,-3.318,14.15,0.005,19.21,-34.51,-41.28,90.9,23.66
8,jab,68258401.0,-3.567,13.963,0.177,16.1,-29.27,-37.87,90.95,23.33
8,jab,68263401.0,-3.179,14.37,0.139,12.32,-25.49,-35.91,90.98,22.99
8,jab,68268401.0,-3.007,14.7,0.393,7.2,-21.34,-32.13,90.97,22.65
8,jab,68273401.0,-2.595,14.595,0.469,2.56,-20.55,-29.33,90.92,22.3
8,jab,68278401.0,-2.744,14.351,0.603,-2.68,-19.09,-28.23,90.84,21.98
8,jab,68283401.0,-2.83,14.562,0.364,-6.4,-19.7,-30.67,90.77,21.66
8,jab,68288402.0,-3.184,14.633,-0.105,-8.78,-16.65,-35.73,90.72,21.39
8,jab,68293402.0,-3.745,14.48,-0.503,-9.02,-13.41,-43.35,90.7,21.19
8,jab,68298402.0,-3.812,14.619,-1.288,-8.17,-6.83,-53.78,90.74,21.02
8,jab,68303402.0,-3.941,14.638,-1.757,-7.5,5.3,-64.7,90.83,20.93
8,jab,68308402.0,-4.075,14.523,-2.054,-6.4,19.63,-75.98,90.94,20.91
8,jab,68313402.0,-3.998,14.552,-1.954,-6.1,34.7,-88.6,91.05,20.97
8,jab,68318402.0,-3.711,14.815,-1.824,-7.93,49.21,-101.65,91.13,21.07
8,jab,68323402.0,-3.069,15.27,-1.484,-12.5,59.33,-114.7,91.15,21.17
8,jab,68328402.0,-2.16,15.998,-1.207,-18.48,66.4,-124.88,91.13,21.22
8,jab,68333402.0,-1.101,16.616,-0.79,-25.73,69.94,-131.89,91.03,21.22
8,jab,68338402.0,-0.077,16.961,-0.479,-33.05,68.23,-135.24,90.88,21.13
8,jab,68343402.0,0.838,17.056,-0.168,-39.21,62.13,-136.71,90.68,20.96
8,jab,68348402.0,1.561,17.123,0.326,-44.21,52.99,-136.46,90.43,20.69
8,jab,68353402.0,1.978,17.324,0.56,-47.93,44.7,-134.94,90.15,20.37
8,jab,68358402.0,2.04,17.463,0.694,-50.06,40.37,-134.39,89.86,20.03
8,jab,68363402.0,1.882,17.578,0.57,-49.45,39.39,-136.52,89.58,19.7
8,jab,68368402.0,1.676,17.679,0.244,-45.18,38.96,-142.5,89.35,19.38
8,jab,68373402.0,1.599,17.775,-0.153,-36.71,38.35,-150.37,89.2,19.08
8,jab,68378402.0,1.786,17.913,-0.388,-24.21,35.91,-159.7,89.12,18.76
8,jab,68383402.0,2.308,18.119,-0.469,-9.15,31.22,-168.35,89.12,18.4
8,jab,68388402.0,2.859,18.11,-0.484,5.79,24.51,-174.76,89.2,17.97
8,jab,68393402.0,3.122,17.449,-0.316,18.41,13.17,-178.6,89.32,17.47
8,jab,68398402.0,3.261,16.036,-0.067,29.88,-3.96,-181.04,89.49,16.87
8,jab,68403402.0,3.366,14.423,0.316,40.3,-24.27,-182.44,89.67,16.15
8,jab,68408402.0,3.443,12.795,0.771,45.79,-45.0,-181.46,89.83,15.31
8,jab,68413402.0,3.275,11.047,1.417,43.66,-64.45,-178.84,89.9,14.36
8,jab,68418402.0,2.916,9.337,2.059,36.65,-84.27,-175.91,89.84,13.32
8,jab,68423402.0,2.461,7.465,1.446,24.82,-93.66,-172.8,89.74,12.24
8,jab,68428402.0,1.312,5.277,1.642,15.37,-92.56,-169.09,89.48,11.27
8,jab,68433402.0,0.369,3.553,2.112,12.99,-87.62,-166.83,88.94,10.51
8,jab,68438402.0,-0.369,2.303,2.768,15.79,-78.29,-163.29,88.03,10.04
8,jab,68443402.0,-0.713,1.149,3.496,25.43,-72.8,-158.54,86.76,9.7
8,jab,68448402.0,-0.522,-0.235,3.792,36.22,-60.67,-152.38,85.13,9.36
8,jab,68453403.0,-0.464,-2.409,5.104,50.73,-54.02,-147.93,83.17,9.01
8,jab,68458403.0,-0.402,-5.315,6.503,69.27,-54.39,-146.34,81.06,8.61
8,jab,68463403.0,-0.766,-8.586,8.413,89.94,-58.29,-151.28,78.97,8.23
8,jab,68468403.0,-1.47,-11.607,10.625,111.95,-69.39,-164.33,76.99,7.83
8,jab,68473403.0,-2.112,-14.073,12.608,134.94,-93.9,-184.51,75.15,7.34
8,jab,68478403.0,-2.696,-16.41,14.619,157.44,-129.27,-207.01,73.45,6.7
8,jab,68483403.0,-3.634,-18.847,16.74,178.23,-174.45,-229.33,71.89,5.88
8,jab,68488403.0,-4.956,-20.461,18.613,196.46,-227.07,-246.59,70.46,4.85
8,jab,68493403.0,-6.306,-21.557,19.743,209.7,-284.57,-252.56,69.12,3.6
8,jab,68498403.0,-8.337,-22.558,20.753,216.65,-338.23,-245.61,67.86,2.18
8,jab,68503403.0,-11.296,-24.095,22.592,218.29,-392.56,-222.74,66.63,0.59
8,jab,68508403.0,-15.601,-25.077,24.79,211.46,-451.22,-192.62,65.43,-1.16
8,jab,68513403.0,-19.278,-24.565,24.565,180.43,-497.38,-161.1,64.1,-2.99
8,jab,68518403.0,-24.076,-23.588,21.826,135.24,-516.1,-138.05,62.54,-4.72
8,jab,68523403.0,-28.141,-21.763,15.409,99.09,-502.2,-120.0,60.68,-6.16
8,jab,68528403.0,-31.546,-19.541,5.741,88.72,-444.88,-111.59,58.43,-7.07
8,jab,68533403.0,-33.921,-16.295,-5.353,107.99,-343.54,-114.02,55.63,-7.35
8,jab,68538403.0,-39.274,-11.128,-17.818,152.74,-199.7,-132.2,52.3,-6.95
8,jab,68543403.0,-47.247,-5.143,-31.637,218.11,-34.15,-143.9,48.91,-5.86
8,jab,68548403.0,-56.182,-2.911,-41.108,299.21,111.34,-153.96,45.88,-4.12
8,jab,68553403.0,-55.713,-8.667,-42.124,364.88,225.06,-159.21,43.38,-1.89
8,jab,68558403.0,-45.571,-19.015,-31.249,380.67,325.61,-167.2,41.41,0.77
8,jab,68563403.0,-32.485,-24.904,-11.229,326.04,387.44,-179.15,39.89,3.65
8,jab,68568403.0,-18.857,-24.406,6.029,207.2,372.8,-194.88,38.58,6.14
8,jab,68578403.0,7.628,-9.031,24.067,-89.15,210.06,-175.79,35.59,8.3
8,jab,68583403.0,16.041,0.67,20.925,-192.32,87.07,-90.73,33.97,7.81
8,jab,68588403.0,16.692,7.269,14.241,-253.23,-30.49,38.54,32.59,6.58
8,jab,68593403.0,11.703,7.451,8.011,-270.85,-114.7,178.66,31.47,4.95
8,jab,68598403.0,3.845,3.749,3.812,-244.7,-176.22,279.51,30.53,3.28
8,jab,68603403.0,-2.672,-0.603,0.848,-189.94,-216.1,329.21,28.28,3.53
8,jab,68608403.0,-6.273,-3.505,0.991,-134.27,-223.66,347.32,25.57,3.56
8,jab,68613403.0,-8.734,-4.391,2.054,-92.26,-203.78,339.63,23.31,3.71
8,jab,68618403.0,-9.941,-4.056,3.524,-80.06,-161.83,319.09,21.47,4.07
8,jab,68623403.0,-10.52,-4.137,3.673,-83.17,-106.71,291.89,19.67,4.71
8,jab,68628403.0,-10.903,-4.319,2.811,-83.72,-46.77,259.39,17.73,5.68
8,jab,68633403.0,-11.186,-4.606,2.26,-77.62,10.3,219.63,15.71,6.93
8,jab,68638403.0,-10.942,-4.123,2.619,-63.35,57.93,176.65,13.94,8.39
8,jab,68643403.0,-9.586,-3.098,3.041,-49.57,95.79,133.66,12.51,10.0
8,jab,68648403.0,-8.226,-2.322,4.53,-38.11,126.04,99.09,11.53,11.59
8,jab,68653404.0,-6.876,-1.776,5.114,-29.15,144.63,76.34,10.77,13.1
8,jab,68658404.0,-6.474,-1.417,5.511,-24.51,158.23,62.07,10.15,14.59
8,jab,68663404.0,-6.68,-1.025,5.717,-22.8,163.72,51.28,9.63,16.08
8,jab,68668404.0,-6.732,-0.335,6.12,-22.07,157.38,41.71,9.26,17.48
8,jab,68673404.0,-6.254,0.421,6.436,-23.72,141.52,35.06,9.04,18.71
8,jab,68678404.0,-5.66,1.188,6.804,-26.46,119.88,34.82,8.92,19.71
8,jab,68683404.0,-5.339,2.049,7.197,-28.6,95.43,43.72,8.92,20.49
8,jab,68688404.0,-5.574,2.433,7.614,-33.9,67.99,58.66,8.93,21.11
8,jab,68693405.0,-6.182,2.777,7.59,-34.7,37.68,76.71,8.99,21.62
8,jab,68698405.0,-6.833,3.146,7.374,-34.76,9.94,97.44,9.1,22.05
8,jab,68703405.0,-7.896,3.179,7.532,-34.94,-10.06,119.27,9.2,22.44
8,jab,68708405.0,-9.012,3.175,7.537,-34.09,-23.29,140.91,9.31,22.83
8,jab,68713405.0,-9.96,3.218,6.809,-33.54,-28.23,161.22,9.46,23.29
8,jab,68718405.0,-11.329,2.437,6.124,-33.11,-23.23,176.28,9.55,23.91
8,jab,68723405.0,-12.699,1.93,5.516,-29.33,-11.28,183.05,9.6,24.68
8,jab,68728405.0,-13.599,1.575,5.248,-26.65,7.38,182.8,9.61,25.59
8,jab,68733405.0,-14.289,0.737,4.87,-24.7,30.67,176.04,9.47,26.64
8,jab,68738405.0,-14.667,0.177,4.515,-23.41,55.43,163.17,9.21,27.84
8,jab,68743405.0,-14.815,-0.057,4.271,-23.05,80.55,145.85,8.9,29.16
8,jab,68748405.0,-14.806,-0.134,4.223,-23.48,102.32,125.67,8.57,30.56
8,jab,68753405.0,-14.341,0.024,4.444,-25.61,117.87,105.0,8.28,31.98
9,jab,72663442.0,-4.855,8.543,0.436,-3.29,3.66,1.1,88.58,30.9
9,jab,72668442.0,-4.812,8.61,0.441,-3.6,4.02,-0.37,88.54,30.88
9,jab,72673442.0,-4.784,8.653,0.417,-4.02,4.02,-1.95,88.49,30.86
9,jab,72678442.0,-4.793,8.648,0.431,-3.9,3.78,-3.72,88.45,30.84
9,jab,72683442.0,-4.769,8.715,0.469,-3.6,2.99,-5.43,88.4,30.81
9,jab,72688442.0,-4.683,8.782,0.484,-3.05,1.89,-6.83,88.35,30.77
9,jab,72693442.0,-4.664,8.863,0.503,-2.56,1.16,-7.93,88.31,30.71
9,jab,72698442.0,-4.693,8.93,0.445,-1.4,0.73,-9.21,88.28,30.65
9,jab,72703442.0,-4.736,8.969,0.436,0.37,0.37,-10.67,88.26,30.6
9,jab,72708442.0,-4.721,9.06,0.345,2.62,1.16,-12.2,88.26,30.54
9,jab,72713442.0,-4.726,9.093,0.287,5.55,2.01,-13.6,88.29,30.49
9,jab,72718442.0,-4.659,9.093,0.283,8.96,2.5,-16.34,88.33,30.44
9,jab,72723442.0,-4.559,9.151,0.35,12.26,2.62,-19.82,88.38,30.37
9,jab,72728442.0,-4.391,9.347,0.412,15.79,2.13,-23.54,88.44,30.28
9,jab,72733442.0,-4.175,9.649,0.488,18.66,1.04,-26.95,88.5,30.14
9,jab,72738442.0,-4.017,9.941,0.484,21.04,0.55,-29.57,88.58,29.98
9,jab,72743442.0,-3.874,10.166,0.599,22.8,0.12,-31.89,88.65,29.8
9,jab,72748442.0,-3.711,10.405,0.776,23.96,-1.22,-33.66,88.71,29.59
9,jab,72753443.0,-3.491,10.774,0.967,23.66,-2.74,-35.37,88.75,29.34
9,jab,72758444.0,-3.041,11.31,1.197,21.59,-4.33,-36.34,88.76,29.03
9,jab,72763444.0,-2.634,11.933,1.302,17.62,-4.88,-37.26,88.75,28.68
9,jab,72768444.0,-2.318,12.598,1.561,12.68,-6.34,-38.05,88.69,28.28
9,jab,72773444.0,-2.102,13.398,1.547,7.44,-8.35,-39.76,88.62,27.85
9,jab,72778444.0,-1.662,14.269,1.595,2.8,-9.27,-43.35,88.54,27.38
9,jab,72783444.0,-1.379,15.055,1.762,-0.55,-7.01,-48.11,88.43,26.9
9,jab,72788444.0,-0.996,16.06,1.762,-1.65,-6.4,-52.93,88.33,26.4
9,jab,72793444.0,-0.718,16.817,1.772,1.59,-4.51,-59.09,88.25,25.9
9,jab,72798444.0,-0.527,17.885,1.805,3.66,-1.4,-67.01,88.19,25.41
9,jab,72803444.0,-0.201,18.747,1.662,7.13,3.9,-75.18,88.16,24.93
9,jab,72808444.0,0.029,18.957,1.724,12.93,11.34,-82.74,88.15,24.49
9,jab,72813444.0,0.479,19.259,1.978,19.94,18.41,-89.94,88.17,24.06
9,jab,72818444.0,0.982,19.661,2.447,26.22,24.82,-96.4,88.19,23.64
9,jab,72823444.0,1.446,20.274,2.873,29.57,29.82,-102.38,88.21,23.24
9,jab,72828444.0,1.939,20.801,2.983,29.7,33.35,-106.28,88.23,22.83
9,jab,72833444.0,2.619,21.696,2.404,28.9,34.09,-109.39,88.28,22.4
9,jab,72838444.0,3.467,22.185,1.59,29.76,33.17,-109.88,88.38,21.94
9,jab,72843444.0,3.917,22.692,1.302,30.55,33.35,-106.65,88.5,21.47
9,jab,72848444.0,4.31,23.205,1.006,30.37,31.65,-102.26,88.63,20.98
9,jab,72853444.0,4.511,23.597,0.9,28.96,26.22,-98.66,88.75,20.48
9,jab,72858444.0,4.769,23.832,0.622,27.07,16.1,-95.61,88.88,19.92
9,jab,72863446.0,5.042,23.592,0.426,23.48,4.63,-94.45,89.0,19.3
9,jab,72868446.0,5.08,22.956,0.172,19.45,-5.12,-96.16,89.1,18.64
9,jab,72873446.0,4.846,22.098,0.005,15.61,-13.9,-102.56,89.2,17.95
9,jab,72878446.0,4.487,21.117,0.01,12.32,-23.9,-113.96,89.27,17.24
9,jab,72883446.0,4.238,19.948,-0.086,7.87,-33.78,-129.88,89.33,16.49
9,jab,72888446.0,3.994,18.684,-0.129,1.95,-42.32,-148.78,89.36,15.71
9,jab,72893446.0,3.677,17.406,-0.259,-5.37,-48.84,-168.84,89.37,14.92
9,jab,72898446.0,3.405,16.3,-0.565,-14.21,-51.16,-188.35,89.35,14.13
9,jab,72903446.0,3.213,15.395,-0.742,-25.0,-48.78,-208.11,89.29,13.37
9,jab,72908446.0,2.763,14.466,-1.015,-37.68,-42.93,-226.95,89.2,12.68
9,jab,72913446.0,2.016,13.302,-0.642,-47.13,-37.62,-242.62,89.04,12.07
9,jab,72918446.0,1.796,12.646,-0.168,-50.67,-34.21,-252.99,88.83,11.5
9,jab,72923446.0,1.944,12.143,0.397,-50.18,-30.91,-255.49,88.57,10.94
9,jab,72928446.0,2.14,11.516,1.073,-46.89,-27.32,-246.46,88.26,10.38
9,jab,72933446.0,2.155,10.319,1.757,-40.43,-25.73,-226.46,87.91,9.81
9,jab,72938446.0,1.939,8.547,2.342,-31.77,-22.87,-198.23,87.49,9.25
9,jab,72943446.0,0.986,5.947,3.84,-22.26,-22.26,-169.45,86.77,8.8
9,jab,72948446.0,0.551,3.127,4.199,-12.93,-25.37,-145.37,85.71,8.38
9,jab,72953446.0,-0.378,-0.187,5.837,-0.37,-23.96,-127.68,83.95,8.17
9,jab,72958446.0,-0.962,-3.28,7.934,19.09,-28.17,-117.99,81.92,8.0
9,jab,72963446.0,-0.838,-6.11,9.476,43.84,-48.05,-119.09,79.84,7.69
9,jab,72968446.0,-0.771,-8.365,10.558,71.59,-74.09,-131.04,77.82,7.23
9,jab,72973446.0,-1.211,-10.147,10.894,98.41,-102.01,-152.07,75.89,6.68
9,jab,72978446.0,-2.437,-12.119,10.429,122.99,-125.49,-179.63,73.99,6.11
9,jab,72983446.0,-4.3,-14.585,9.596,148.9,-138.72,-210.43,72.11,5.58
9,jab,72988446.0,-6.134,-17.181,8.997,178.41,-140.85,-239.45,70.29,5.13
9,jab,72993446.0,-7.547,-19.57,8.983,208.29,-136.22,-262.56,68.6,4.75
9,jab,72998446.0,-8.294,-21.553,10.041,232.38,-131.95,-275.43,67.07,4.39
9,jab,73003446.0,-8.643,-23.133,11.736,245.91,-132.26,-276.34,65.67,4.02
9,jab,73008446.0,-8.973,-24.196,13.235,247.38,-139.57,-266.4,64.34,3.62
9,jab,73013446.0,-9.888,-25.005,13.944,239.88,-154.27,-254.63,63.01,3.17
9,jab,73018446.0,-11.186,-25.709,13.618,225.91,-175.18,-245.85,61.62,2.67
9,jab,73023446.0,-12.742,-26.03,12.158,214.94,-198.96,-242.5,60.14,2.12
9,jab,73028446.0,-15.155,-25.968,10.98,203.84,-216.52,-240.49,58.59,1.58
9,jab,73033446.0,-17.573,-24.814,8.705,191.71,-224.82,-241.89,56.95,1.12
9,jab,73038446.0,-19.173,-22.683,5.262,183.72,-218.48,-241.46,55.17,0.82
9,jab,73043447.0,-20.542,-19.963,1.24,182.68,-198.66,-235.24,53.23,0.75
9,jab,73048447.0,-22.333,-17.09,-3.376,191.46,-162.5,-222.5,51.08,0.98
9,jab,73053447.0,-25.704,-13.388,-7.791,207.32,-110.24,-208.66,48.67,1.6
9,jab,73058447.0,-33.136,-7.843,-12.526,217.93,-67.2,-194.57,45.81,2.55
9,jab,73063447.0,-40.539,-3.768,-21.222,229.15,-33.6,-164.39,42.62,3.58
9,jab,73068447.0,-43.91,-3.007,-26.566,245.06,2.8,-116.95,39.49,4.69
9,jab,73073447.0,-40.534,-8.533,-24.55,240.06,43.35,-51.22,36.66,5.96
9,jab,73078447.0,-31.867,-15.27,-15.783,194.39,87.13,12.38,34.16,7.37
9,jab,73083447.0,-22.984,-19.565,-3.907,107.68,115.55,50.91,31.98,8.77
9,jab,73088447.0,-14.562,-18.909,5.526,4.45,109.27,64.7,29.89,9.86
9,jab,73093447.0,-6.134,-14.404,10.606,-94.88,72.01,69.57,27.75,10.4
9,jab,73098447.0,-0.12,-7.748,10.76,-172.2,20.12,81.46,25.64,10.3
9,jab,73103447.0,1.944,-2.174,7.887,-207.32,-34.33,111.16,23.8,9.66
9,jab,73108448.0,1.25,1.317,4.401,-200.0,-84.76,152.01,22.68,8.74
9,jab,73113448.0,-1.355,1.796,2.701,-170.43,-119.76,195.3,22.06,8.44
9,jab,73118448.0,-5.243,-0.306,2.184,-134.82,-139.45,230.61,20.8,8.93
9,jab,73123448.0,-9.299,-3.529,2.667,-104.94,-139.02,250.24,18.81,9.36
9,jab,73128448.0,-12.33,-5.488,3.17,-85.3,-122.56,252.8,16.82,9.83
9,jab,73133448.0,-14.274,-6.421,2.95,-76.1,-94.21,240.18,14.8,10.44
9,jab,73138448.0,-14.964,-6.397,2.629,-68.29,-59.39,219.63,12.82,11.25
9,jab,73143448.0,-14.657,-5.986,2.48,-60.43,-22.26,194.88,10.92,12.24
9,jab,73148448.0,-13.542,-5.636,1.978,-49.15,16.04,172.01,9.05,13.39
9,jab,73153448.0,-12.373,-5.392,1.719,-32.99,55.37,154.27,7.26,14.71
9,jab,73158448.0,-11.487,-5.306,2.04,-13.84,94.57,141.4,5.66,16.15
9,jab,73163448.0,-11.147,-5.181,3.395,-1.95,124.57,127.26,4.41,17.65
9,jab,73168448.0,-10.755,-5.377,3.448,8.72,146.4,113.35,3.21,19.2
9,jab,73173448.0,-9.735,-5.765,3.869,10.91,166.34,102.2,2.08,20.73
9,jab,73178448.0,-9.251,-5.737,5.392,10.43,177.26,95.67,1.15,22.17
9,jab,73183448.0,-8.887,-5.55,6.187,3.54,175.49,90.85,0.31,23.53
9,jab,73188448.0,-8.595,-5.224,7.01,-7.62,160.79,85.24,-0.47,24.73
9,jab,73193448.0,-7.705,-4.812,7.278,-22.32,138.35,81.1,-1.24,25.75
9,jab,73198448.0,-6.661,-4.334,7.575,-39.02,111.04,81.71,-2.0,26.52
9,jab,73203448.0,-5.698,-3.543,7.752,-54.27,78.29,88.11,-2.72,27.05
9,jab,73208448.0,-5.066,-2.375,7.623,-67.07,43.6,101.46,-3.34,27.37
9,jab,73213448.0,-4.899,-1.125,7.355,-76.83,8.29,120.24,-3.82,27.53
9,jab,73218448.0,-5.124,-0.11,6.9,-83.05,-24.51,141.16,-4.17,27.59
9,jab,73223448.0,-5.899,0.737,6.316,-84.09,-54.45,162.01,-4.36,27.63
9,jab,73228448.0,-6.823,1.322,5.526,-80.0,-78.78,182.01,-4.4,27.7
9,jab,73233448.0,-7.949,1.743,4.64,-71.71,-93.23,199.21,-4.25,27.85
9,jab,73238448.0,-9.251,1.935,3.864,-61.59,-96.46,210.37,-3.94,28.12
9,jab,73243448.0,-10.453,1.935,3.275,-51.22,-89.15,213.54,-3.5,28.52
9,jab,73248448.0,-11.665,1.748,3.103,-42.26,-73.17,207.74,-3.05,29.05
9,jab,73253448.0,-12.474,1.599,3.184,-32.74,-51.34,195.12,-2.61,29.7
9,jab,73258448.0,-12.67,1.666,3.606,-26.22,-27.32,178.9,-2.19,30.42
10,jab,77173489.0,-5.799,8.145,-0.034,4.57,0.43,-7.62,91.1,33.82
10,jab,77178489.0,-5.856,8.159,-0.01,4.15,1.52,-8.29,91.1,33.86
10,jab,77183489.0,-5.856,8.236,-0.019,4.02,2.56,-8.66,91.1,33.91
10,jab,77188489.0,-5.847,8.27,0.0,3.84,3.41,-8.66,91.1,33.95
10,jab,77193489.0,-5.88,8.303,0.062,4.02,3.9,-8.66,91.09,34.0
10,jab,77198489.0,-5.99,8.351,0.024,4.02,3.54,-8.6,91.08,34.05
10,jab,77203489.0,-6.057,8.375,-0.024,4.39,3.35,-8.66,91.08,34.1
10,jab,77208489.0,-6.043,8.437,-0.062,4.82,3.23,-8.41,91.09,34.15
10,jab,77213489.0,-5.971,8.576,-0.005,5.37,2.99,-8.05,91.1,34.18
10,jab,77218489.0,-5.933,8.744,-0.043,5.61,2.87,-7.44,91.11,34.19
10,jab,77223489.0,-6.005,8.902,-0.081,5.85,3.35,-7.01,91.13,34.2
10,jab,77228489.0,-6.053,9.055,-0.134,6.46,4.02,-7.56,91.15,34.21
10,jab,77233489.0,-6.014,9.256,-0.168,7.62,4.39,-9.15,91.19,34.21
10,jab,77238489.0,-5.942,9.606,-0.215,9.82,5.12,-11.83,91.24,34.19
10,jab,77243489.0,-5.746,10.046,-0.302,12.87,5.49,-14.94,91.31,34.12
10,jab,77248489.0,-5.636,10.429,-0.268,17.13,5.0,-17.74,91.4,34.03
10,jab,77253489.0,-5.224,10.98,-0.273,22.56,2.62,-21.46,91.51,33.87
10,jab,77258489.0,-4.817,11.435,-0.048,28.35,-0.24,-24.88,91.62,33.65
10,jab,77263489.0,-4.544,11.928,0.072,34.15,-4.7,-29.15,91.75,33.37
10,jab,77268489.0,-4.147,12.526,0.163,39.76,-11.04,-34.45,91.9,33.02
10,jab,77273489.0,-3.677,13.317,-0.048,44.21,-16.65,-39.51,92.08,32.59
10,jab,77278489.0,-3.218,14.006,-0.148,47.93,-21.59,-42.13,92.28,32.09
10,jab,77283489.0,-3.002,14.116,-0.249,51.34,-27.2,-43.41,92.51,31.55
10,jab,77288489.0,-3.065,14.169,0.062,55.91,-31.4,-45.43,92.73,31.01
10,jab,77293489.0,-2.538,15.352,0.373,55.85,-34.15,-45.91,92.92,30.41
10,jab,77298489.0,-1.925,16.175,0.512,50.12,-37.44,-44.63,93.07,29.76
10,jab,77303489.0,-1.077,16.429,0.431,42.93,-39.76,-41.52,93.19,29.04
10,jab,77308489.0,-0.656,16.549,0.781,34.63,-36.95,-36.89,93.24,28.32
10,jab,77313489.0,0.196,17.142,0.527,25.98,-34.15,-34.39,93.27,27.58
10,jab,77318489.0,0.35,17.052,-0.153,11.1,-14.15,-35.55,93.27,26.93
10,jab,77323489.0,0.273,17.214,-0.555,-0.55,12.2,-43.78,93.24,26.44
10,jab,77328489.0,0.263,17.516,-0.656,-8.9,40.0,-59.51,93.17,26.09
10,jab,77333489.0,0.622,18.268,-0.383,-15.24,67.01,-81.04,93.06,25.85
10,jab,77338489.0,1.757,19.518,0.235,-20.85,87.93,-105.67,92.88,25.66
10,jab,77343489.0,3.179,21.007,0.766,-27.68,101.46,-127.38,92.65,25.48
10,jab,77348489.0,4.63,22.328,1.13,-34.09,106.83,-143.54,92.37,25.26
10,jab,77353489.0,5.727,23.358,1.298,-37.87,104.51,-153.84,92.07,24.99
10,jab,77358489.0,6.239,24.09,1.609,-40.43,94.02,-159.82,91.76,24.66
10,jab,77363489.0,6.383,24.708,1.844,-42.5,74.82,-163.23,91.43,24.24
10,jab,77368489.0,6.354,24.995,1.719,-44.57,51.52,-162.99,91.1,23.73
10,jab,77373489.0,5.851,24.775,1.221,-46.46,32.68,-160.73,90.79,23.15
10,jab,77378489.0,4.688,24.023,0.862,-45.79,18.96,-160.37,90.51,22.56
10,jab,77383489.0,3.529,23.157,0.407,-43.23,7.44,-163.96,90.27,21.97
10,jab,77388489.0,2.638,22.218,0.01,-39.33,0.18,-171.34,90.07,21.39
10,jab,77393489.0,2.193,21.284,-0.311,-32.62,-2.62,-180.61,89.93,20.84
10,jab,77398489.0,2.121,20.662,-0.685,-21.77,-1.95,-187.56,89.86,20.29
10,jab,77403489.0,2.274,20.03,-0.848,-6.46,1.4,-189.88,89.88,19.76
10,jab,77408489.0,2.351,18.972,-0.857,10.24,4.94,-188.48,89.98,19.25
10,jab,77413489.0,2.198,17.344,-0.627,25.91,6.04,-186.52,90.15,18.75
10,jab,77418489.0,2.093,15.251,-0.201,37.93,1.04,-186.59,90.35,18.23
10,jab,77423489.0,2.126,12.938,0.306,45.49,-7.99,-186.16,90.54,17.64
10,jab,77428489.0,2.437,10.511,0.761,48.6,-21.46,-183.23,90.68,16.92
10,jab,77433489.0,2.318,8.03,2.083,48.23,-40.37,-177.32,90.62,16.07
10,jab,77438489.0,2.777,5.847,2.011,44.27,-63.84,-167.26,90.44,14.95
10,jab,77443489.0,2.236,3.596,2.327,38.11,-82.13,-153.6,89.96,13.7
10,jab,77448489.0,1.01,1.322,2.193,34.39,-96.1,-138.29,88.95,12.52
10,jab,77453489.0,-0.704,-1.346,1.499,34.51,-102.5,-126.46,86.5,12.15
10,jab,77458489.0,-2.471,-4.487,0.69,38.84,-99.21,-123.29,83.34,12.0
10,jab,77463489.0,-4.017,-7.623,0.498,47.8,-87.99,-131.1,80.18,11.88
10,jab,77468489.0,-4.879,-10.276,0.517,60.85,-74.15,-149.88,77.13,11.79
10,jab,77473489.0,-5.449,-12.526,1.034,75.49,-57.2,-178.48,74.25,11.74
10,jab,77478489.0,-5.942,-14.284,2.207,91.52,-40.0,-213.9,71.59,11.76
10,jab,77483489.0,-6.306,-15.49,3.491,107.01,-27.87,-253.23,69.14,11.82
10,jab,77488489.0,-7.14,-16.788,4.798,124.82,-23.35,-291.83,66.89,11.91
10,jab,77493489.0,-8.078,-17.889,5.947,146.95,-30.0,-325.37,64.84,11.99
10,jab,77498489.0,-8.638,-18.522,7.384,172.26,-49.33,-349.33,63.02,11.98
10,jab,77503489.0,-8.605,-18.909,8.935,196.4,-79.94,-359.39,61.43,11.79
10,jab,77508489.0,-8.294,-19.23,10.827,214.09,-117.93,-352.38,60.04,11.39
10,jab,77513489.0,-7.997,-19.201,12.608,223.05,-159.51,-329.76,58.79,10.77
10,jab,77518489.0,-8.394,-19.589,14.207,221.83,-204.39,-295.12,57.62,9.93
10,jab,77523489.0,-9.079,-19.522,14.585,215.67,-241.83,-255.91,56.46,8.96
10,jab,77528489.0,-10.386,-19.498,13.8,199.39,-266.52,-216.65,55.22,7.94
10,jab,77533489.0,-12.55,-19.312,10.716,179.27,-273.54,-185.55,53.77,7.03
10,jab,77538489.0,-14.815,-19.929,5.387,170.18,-261.4,-169.57,52.03,6.33
10,jab,77543489.0,-17.028,-20.26,-0.182,185.61,-232.26,-167.2,50.09,5.86
10,jab,77548489.0,-17.818,-19.518,-5.085,218.54,-187.44,-176.16,48.07,5.66
10,jab,77553489.0,-18.282,-19.043,-5.813,248.78,-127.68,-196.52,46.19,5.77
10,jab,77558489.0,-18.258,-18.569,-3.831,264.15,-78.41,-221.46,44.52,6.15
10,jab,77563489.0,-17.267,-16.74,-2.394,261.65,-37.32,-232.99,42.95,6.75
10,jab,77568489.0,-17.147,-15.17,-1.456,244.51,1.22,-237.44,41.38,7.59
10,jab,77573489.0,-17.008,-13.374,-2.677,222.44,34.7,-231.34,39.62,8.64
10,jab,77578489.0,-17.492,-11.823,-4.956,201.04,73.29,-213.84,37.56,9.9
10,jab,77583489.0,-18.68,-11.272,-4.525,183.35,93.66,-199.88,35.47,11.3
10,jab,77588489.0,-18.986,-10.099,-4.597,165.37,97.13,-182.44,33.28,12.74
10,jab,77593489.0,-19.058,-9.625,-4.827,127.32,114.45,-147.56,30.9,14.26
10,jab,77598489.0,-18.091,-10.491,-4.683,96.46,127.56,-120.73,28.48,15.75
10,jab,77603489.0,-15.917,-10.027,-3.304,72.99,132.38,-97.13,26.1,17.21
10,jab,77608489.0,-12.048,-9.098,0.235,27.74,127.01,-55.0,23.94,18.55
10,jab,77613489.0,-9.735,-7.939,2.701,-18.96,111.22,-21.4,21.95,19.71
10,jab,77618489.0,-8.145,-6.943,3.361,-64.15,88.41,9.21,19.91,20.68
10,jab,77623489.0,-6.8,-5.99,2.514,-96.89,62.68,38.9,17.69,21.5
10,jab,77628489.0,-5.32,-5.119,0.843,-111.83,38.29,71.04,15.18,22.17
10,jab,77633489.0,-4.769,-4.745,0.57,-109.7,16.95,104.76,12.67,22.71
10,jab,77638489.0,-4.458,-4.276,1.235,-97.01,-7.32,137.32,10.47,23.12
10,jab,77643489.0,-4.745,-4.132,2.643,-85.67,-31.83,166.89,8.69,23.38
10,jab,77648489.0,-5.497,-4.314,4.061,-80.24,-56.04,192.68,7.19,23.5
10,jab,77653489.0,-6.685,-4.985,4.889,-79.51,-76.28,214.09,5.74,23.53
10,jab,77658489.0,-8.035,-5.449,5.162,-78.17,-92.2,230.61,4.32,23.54
10,jab,77663489.0,-9.012,-5.775,4.961,-77.32,-100.49,242.07,2.86,23.58
10,jab,77668489.0,-10.013,-5.995,4.922,-74.02,-98.05,251.65,1.43,23.67
10,jab,77673489.0,-10.592,-6.115,4.736,-70.18,-86.28,259.7,0.01,23.85
10,jab,77678489.0,-11.2,-6.187,4.19,-66.83,-63.84,264.76,-1.43,24.19
10,jab,77683489.0,-12.349,-6.488,4.549,-66.77,-32.32,263.78,-2.83,24.69
10,jab,77688489.0,-13.068,-7.005,3.749,-62.62,1.83,257.26,-4.32,25.38
10,jab,77693489.0,-14.083,-7.604,3.515,-57.62,42.68,239.82,-5.82,26.27
10,jab,77698489.0,-14.629,-7.93,3.677,-51.16,80.43,212.44,-7.25,27.32
10,jab,77703489.0,-14.188,-7.441,3.97,-45.18,113.72,180.0,-8.57,28.52
10,jab,77708489.0,-12.89,-6.503,4.841,-39.63,134.27,148.78,-9.66,29.76
10,jab,77713489.0,-10.918,-5.425,5.229,-38.05,146.77,126.28,-10.57,30.99
10,jab,77718489.0,-9.155,-4.774,5.535,-38.48,153.41,115.43,-11.36,32.15
11,jab,81698515.0,-6.12,8.423,-0.608,0.43,-4.82,5.0,95.96,38.43
11,jab,81703515.0,-5.995,8.504,-0.656,1.71,-4.51,4.88,95.94,38.34
11,jab,81708515.0,-5.899,8.633,-0.699,2.5,-3.05,5.12,95.93,38.25
11,jab,81713515.0,-5.76,8.873,-0.761,3.9,-2.8,4.94,95.92,38.13
11,jab,81718515.0,-5.583,9.045,-0.953,6.16,-2.56,5.12,95.96,37.98
11,jab,81723515.0,-5.535,8.993,-1.039,9.7,-1.77,4.27,96.02,37.84
11,jab,81728515.0,-5.737,8.849,-0.891,15.37,-2.62,1.4,96.09,37.73
11,jab,81733515.0,-5.957,8.878,-0.412,21.83,-7.01,-3.41,96.13,37.62
11,jab,81738515.0,-5.679,8.83,-1.082,25.3,-9.82,-8.6,96.27,37.47
11,jab,81743515.0,-5.837,8.638,-0.982,26.59,-7.26,-14.94,96.4,37.36
11,jab,81748515.0,-6.005,8.811,-0.69,28.35,-7.8,-21.16,96.5,37.26
11,jab,81753515.0,-5.631,9.117,-1.269,29.51,-9.63,-25.06,96.67,37.1
11,jab,81758515.0,-5.737,9.122,-1.178,28.35,-4.57,-26.77,96.83,36.97
11,jab,81763515.0,-5.837,9.304,-0.599,27.8,-2.01,-27.26,96.9,36.86
11,jab,81768515.0,-5.521,9.448,-1.116,24.33,0.55,-26.46,97.02,36.73
11,jab,81773515.0,-5.607,9.601,-0.862,19.57,4.88,-26.28,97.07,36.62
11,jab,81778515.0,-5.77,9.893,-0.34,15.24,6.34,-26.34,97.05,36.53
11,jab,81783515.0,-5.478,10.333,-0.627,9.88,3.9,-26.89,97.02,36.37
11,jab,81788515.0,-5.425,10.659,-0.397,2.87,5.61,-28.11,96.94,36.21
11,jab,81793515.0,-5.243,11.104,0.062,-2.07,2.8,-30.3,96.78,36.01
11,jab,81798515.0,-4.884,11.741,0.431,-5.18,-3.11,-33.6,96.58,35.72
11,jab,81803515.0,-4.597,12.708,0.622,-7.26,-10.12,-37.26,96.36,35.36
11,jab,81808515.0,-4.525,13.46,0.694,-8.17,-16.71,-41.52,96.13,34.94
11,jab,81813515.0,-4.87,13.877,0.656,-5.73,-22.32,-47.99,95.93,34.52
11,jab,81818515.0,-4.817,14.925,0.412,-1.34,-24.15,-58.29,95.77,34.07
11,jab,81823515.0,-4.721,15.965,-0.029,4.21,-22.56,-68.84,95.68,33.6
11,jab,81828515.0,-4.453,16.486,-0.479,12.68,-17.62,-77.62,95.66,33.15
11,jab,81833515.0,-4.013,17.257,-0.713,22.2,-8.23,-84.45,95.7,32.71
11,jab,81838515.0,-3.433,18.177,-0.886,30.0,3.84,-89.33,95.79,32.28
11,jab,81843515.0,-2.844,18.569,-0.876,36.34,18.66,-91.16,95.91,31.9
11,jab,81848515.0,-2.222,18.603,-0.79,39.39,33.78,-92.74,96.03,31.57
11,jab,81853515.0,-1.279,18.522,-1.034,38.48,49.45,-94.88,96.16,31.26
11,jab,81858515.0,-0.469,18.742,-1.125,32.68,66.89,-97.87,96.27,30.99
11,jab,81863515.0,0.455,18.996,-1.365,22.32,88.48,-101.65,96.33,30.77
11,jab,81868515.0,1.939,19.944,-2.437,10.12,108.96,-107.26,96.4,30.58
11,jab,81873516.0,2.868,20.547,-2.988,-7.56,133.72,-116.4,96.4,30.47
11,jab,81878516.0,3.974,21.423,-2.686,-21.65,149.09,-130.67,96.31,30.38
11,jab,81883516.0,5.607,23.66,-2.016,-35.73,152.8,-146.77,96.1,30.26
11,jab,81888516.0,7.762,26.475,-1.049,-49.63,143.78,-158.84,95.78,30.03
11,jab,81893516.0,10.041,28.841,-0.072,-61.46,121.52,-163.72,95.37,29.64
11,jab,81898516.0,11.621,30.684,0.958,-67.68,85.3,-160.06,94.89,29.05
11,jab,81903516.0,12.416,31.445,1.48,-68.96,38.29,-147.74,94.4,28.23
11,jab,81908517.0,11.214,30.234,3.165,-64.76,-17.99,-130.12,93.88,27.17
11,jab,81913517.0,10.084,29.463,3.424,-59.39,-70.79,-113.78,93.38,25.9
11,jab,81918517.0,8.313,27.869,2.763,-53.66,-114.57,-98.17,92.93,24.49
11,jab,81923517.0,5.65,26.178,2.404,-46.4,-137.87,-86.28,92.54,23.09
11,jab,81928517.0,2.634,23.808,1.652,-33.78,-149.02,-80.61,92.25,21.77
11,jab,81933517.0,-0.053,21.313,1.14,-17.62,-147.44,-85.06,92.06,20.61
11,jab,81938517.0,-2.069,18.656,0.857,-0.55,-136.4,-98.35,91.96,19.66
11,jab,81943517.0,-3.203,15.926,0.747,15.12,-119.57,-115.61,91.94,18.91
11,jab,81948517.0,-3.855,13.254,0.929,24.21,-96.95,-132.93,91.94,18.38
11,jab,81953517.0,-4.606,10.491,2.064,24.51,-74.39,-149.21,91.8,18.11
11,jab,81958517.0,-5.162,7.436,3.05,15.43,-57.74,-165.43,91.39,18.12
11,jab,81963517.0,-5.148,4.276,4.152,-0.91,-45.79,-179.02,90.48,18.35
11,jab,81968517.0,-4.875,1.427,5.588,-20.3,-40.43,-190.24,88.85,18.59
11,jab,81973517.0,-4.439,-0.838,6.498,-39.88,-42.13,-197.93,86.73,18.69
11,jab,81978517.0,-4.544,-3.06,7.958,-51.95,-46.04,-199.76,84.32,18.65
11,jab,81983517.0,-4.468,-4.319,8.59,-51.46,-52.44,-191.59,81.85,18.52
11,jab,81988517.0,-4.405,-5.104,9.486,-29.88,-52.44,-168.35,79.5,18.34
11,jab,81993517.0,-3.266,-5.665,9.807,13.54,-57.87,-134.57,77.38,18.01
11,jab,81998517.0,-1.781,-6.728,9.72,73.35,-72.99,-99.09,75.5,17.47
11,jab,82003517.0,-1.82,-8.753,10.08,138.41,-94.94,-70.79,73.85,16.81
11,jab,82008517.0,-3.596,-11.574,10.769,203.05,-134.51,-59.7,72.42,16.07
11,jab,82013517.0,-6.445,-15.241,11.928,259.7,-183.84,-65.91,71.21,15.21
11,jab,82018517.0,-9.074,-18.751,12.517,304.27,-235.3,-87.93,70.15,14.19
11,jab,82023517.0,-11.123,-22.012,12.795,328.96,-278.48,-117.44,69.16,13.02
11,jab,82028517.0,-12.842,-25.355,13.149,334.45,-304.51,-143.78,68.17,11.75
11,jab,82033518.0,-14.322,-28.572,13.063,318.72,-311.16,-167.8,67.06,10.48
11,jab,82038518.0,-16.046,-30.684,12.967,285.0,-297.26,-183.96,65.77,9.33
11,jab,82043518.0,-18.301,-31.833,12.388,241.16,-277.99,-201.71,64.26,8.34
11,jab,82048518.0,-20.518,-32.633,10.611,200.37,-257.93,-225.37,62.52,7.53
11,jab,82053518.0,-21.5,-31.714,7.029,188.35,-237.99,-246.52,60.64,6.88
11,jab,82058519.0,-21.466,-28.194,4.027,192.26,-216.4,-260.18,58.73,6.43
11,jab,82063519.0,-21.648,-24.019,3.031,200.12,-186.71,-265.18,56.88,6.22
11,jab,82068519.0,-21.237,-19.704,1.652,200.67,-156.34,-260.73,55.02,6.27
11,jab,82073519.0,-20.782,-15.725,-0.871,195.61,-116.89,-243.35,53.02,6.63
11,jab,82078519.0,-22.046,-13.317,-4.056,184.09,-72.56,-217.93,50.72,7.29
11,jab,82083519.0,-25.968,-12.249,-8.796,177.07,-29.33,-197.2,48.06,8.2
11,jab,82088520.0,-29.77,-9.481,-15.122,184.39,8.84,-176.4,45.04,9.26
11,jab,82093520.0,-30.138,-8.653,-21.012,199.02,67.62,-153.41,41.97,10.47
11,jab,82098520.0,-28.984,-10.113,-21.811,224.09,125.79,-138.17,39.12,11.88
11,jab,82103520.0,-24.076,-12.689,-16.17,240.3,165.85,-129.02,36.68,13.45
11,jab,82108520.0,-18.191,-14.155,-7.058,229.21,189.82,-114.45,34.74,15.09
11,jab,82113520.0,-12.713,-14.217,1.657,178.72,197.5,-96.83,33.25,16.59
11,jab,82118520.0,-7.01,-13.709,7.901,99.7,194.21,-75.73,31.88,17.68
11,jab,82123520.0,-3.634,-11.439,10.903,12.62,173.29,-49.33,30.37,18.44
11,jab,82128520.0,-1.638,-8.413,9.965,-62.2,135.79,-17.32,28.66,18.88
11,jab,82133520.0,-0.761,-6.589,7.46,-119.51,102.32,20.55,26.67,19.09
11,jab,82138520.0,-1.805,-5.765,4.721,-151.04,76.52,60.79,24.38,19.35
11,jab,82143520.0,-3.697,-5.918,2.274,-158.9,58.17,95.18,21.74,19.86
11,jab,82148520.0,-6.086,-6.622,0.939,-148.05,47.01,118.78,18.94,20.54
11,jab,82153520.0,-8.226,-7.566,0.723,-129.76,41.22,130.91,16.23,21.27
11,jab,82158520.0,-9.716,-8.226,1.25,-113.11,42.13,134.57,13.73,22.04
11,jab,82163520.0,-10.803,-8.657,2.796,-100.55,48.9,133.72,11.52,22.84
11,jab,82168520.0,-10.836,-8.586,3.438,-91.59,54.33,132.01,9.47,23.64
11,jab,82173520.0,-10.305,-8.562,3.428,-87.56,65.18,133.29,7.49,24.45
11,jab,82178520.0,-9.649,-8.595,2.777,-83.6,83.66,138.05,5.49,25.31
11,jab,82183520.0,-9.744,-8.653,2.849,-82.93,107.32,139.76,3.54,26.27
11,jab,82188520.0,-10.051,-9.055,1.939,-75.0,130.3,137.01,1.54,27.33
11,jab,82193520.0,-10.147,-8.49,1.776,-67.62,152.07,127.99,-0.38,28.51
11,jab,82198520.0,-9.687,-7.834,1.623,-58.6,167.5,116.28,-2.23,29.77
11,jab,82203520.0,-9.601,-7.345,2.547,-49.33,173.23,103.6,-3.84,31.05
11,jab,82208520.0,-9.108,-6.871,3.136,-42.2,163.29,90.24,-5.28,32.23
11,jab,82213520.0,-8.629,-6.12,3.96,-39.02,143.11,78.23,-6.51,33.29
11,jab,82218520.0,-8.222,-5.44,4.879,-42.93,117.13,70.67,-7.55,34.16
11,jab,82223520.0,-7.757,-4.463,5.373,-51.65,82.87,68.29,-8.45,34.84
11,jab,82228520.0,-7.149,-3.577,5.167,-62.26,43.23,73.66,-9.28,35.33
11,jab,82233520.0,-6.809,-2.935,4.846,-71.65,4.33,87.13,-10.07,35.65
11,jab,82238520.0,-6.924,-2.447,4.621,-78.48,-32.07,107.99,-10.81,35.84
11,jab,82243520.0,-7.547,-1.982,4.348,-82.5,-61.89,134.02,-11.49,35.97
11,jab,82248520.0,-8.437,-1.652,4.185,-85.0,-81.77,162.68,-12.11,36.09
11,jab,82253520.0,-9.433,-1.393,4.032,-87.93,-91.95,189.39,-12.68,36.23
11,jab,82258520.0,-10.525,-1.125,3.687,-92.62,-94.27,209.76,-13.21,36.44
11,jab,82263520.0,-11.574,-0.958,3.031,-96.65,-90.55,223.6,-13.77,36.76
11,jab,82268520.0,-12.455,-0.915,2.179,-99.27,-78.48,228.9,-14.44,37.23
11,jab,82273520.0,-13.317,-0.948,1.197,-100.18,-57.5,224.02,-15.41,37.87
11,jab,82278520.0,-13.872,-1.006,0.397,-99.63,-29.7,209.09,-16.96,38.68
11,jab,82283520.0,-14.322,-1.01,-0.11,-97.68,1.22,186.89,-19.02,39.63
11,jab,82288520.0,-14.298,-0.819,-0.235,-94.88,30.24,159.82,-21.23,40.72
11,jab,82293520.0,-13.738,-0.077,-0.005,-93.11,55.55,130.79,-23.13,41.97
11,jab,82298520.0,-12.498,1.001,0.35,-93.72,76.4,103.23,-21.71,43.21
12,jab,86543547.0,-1.81,24.33,-1.805,-35.43,77.74,-172.07,88.35,36.23
12,jab,86548547.0,-1.068,25.857,-0.603,-49.82,81.52,-177.62,88.16,35.96
12,jab,86553547.0,0.182,26.729,-0.091,-57.44,70.98,-178.66,87.92,35.58
12,jab,86558547.0,1.25,26.786,0.359,-59.82,56.71,-178.29,87.65,35.09
12,jab,86563547.0,2.049,26.092,0.771,-57.26,40.85,-179.63,87.39,34.5
12,jab,86568547.0,2.576,25.326,1.015,-50.67,26.52,-182.87,87.15,33.82
12,jab,86573547.0,2.945,24.684,1.35,-40.85,13.23,-188.48,86.94,33.08
12,jab,86578547.0,2.787,23.454,1.183,-27.93,-1.1,-195.0,86.81,32.27
12,jab,86583547.0,2.389,21.653,0.939,-13.35,-12.2,-202.8,86.76,31.44
12,jab,86588547.0,2.083,19.508,0.354,3.11,-20.61,-210.37,86.81,30.59
12,jab,86593547.0,1.413,16.683,-0.129,20.79,-23.84,-218.84,86.99,29.76
12,jab,86598547.0,0.627,13.901,-0.426,40.06,-21.28,-227.74,87.28,29.01
12,jab,86603547.0,0.177,11.425,-0.517,58.6,-15.3,-236.71,87.67,28.34
12,jab,86608547.0,0.287,8.973,-0.45,75.3,-7.56,-242.13,88.15,27.7
12,jab,86613547.0,0.508,6.0,0.177,88.78,-3.29,-243.6,88.59,27.03
12,jab,86618547.0,1.087,2.701,0.876,99.88,-4.63,-241.46,88.74,26.05
12,jab,86623547.0,1.566,-0.479,2.04,108.66,-8.96,-237.87,87.24,24.75
12,jab,86628547.0,2.03,-3.323,2.816,114.27,-15.24,-233.96,85.06,23.68
12,jab,86633547.0,2.543,-6.23,4.429,118.35,-23.35,-230.98,82.84,22.73
12,jab,86638547.0,2.116,-8.394,4.492,118.17,-30.98,-230.67,80.53,21.87
12,jab,86643547.0,1.575,-10.309,4.324,119.15,-29.94,-231.71,78.16,21.12
12,jab,86648547.0,1.178,-12.45,4.515,131.71,-22.07,-239.76,75.84,20.49
12,jab,86653547.0,1.097,-15.069,4.745,155.79,-9.94,-254.63,73.63,19.95
12,jab,86658547.0,1.14,-17.281,5.483,190.55,2.2,-274.27,71.65,19.49
12,jab,86663547.0,0.661,-18.617,6.153,233.66,9.76,-292.68,69.93,19.11
12,jab,86668547.0,-0.249,-20.681,8.145,283.05,14.94,-300.18,68.54,18.82
12,jab,86673547.0,-0.345,-23.224,11.612,341.1,2.26,-302.93,67.58,18.47
12,jab,86678547.0,-0.239,-25.92,14.667,398.23,-29.82,-302.2,66.97,17.96
12,jab,86683547.0,-0.508,-27.538,17.482,443.66,-64.63,-296.1,66.65,17.3
12,jab,86688547.0,-2.016,-28.017,20.145,473.05,-113.6,-282.56,66.55,16.47
12,jab,86693547.0,-1.183,-27.993,19.699,480.43,-176.04,-257.38,66.47,15.31
12,jab,86698547.0,-2.887,-26.662,20.686,473.84,-209.63,-216.04,66.42,14.08
12,jab,86703547.0,-4.056,-27.28,17.09,445.67,-235.85,-167.2,66.12,12.78
12,jab,86708547.0,-7.345,-27.069,15.256,396.77,-233.05,-110.73,65.53,11.65
12,jab,86713547.0,-11.286,-26.346,11.076,340.73,-219.57,-60.3,64.54,10.77
12,jab,86718547.0,-14.557,-25.517,5.598,272.32,-172.93,-28.41,63.03,10.29
12,jab,86723547.0,-18.052,-24.679,-1.178,203.35,-98.35,-22.26,60.92,10.33
12,jab,86728547.0,-21.51,-22.683,-13.044,152.32,-1.28,-21.77,58.05,10.91
12,jab,86733547.0,-25.493,-24.177,-28.232,128.29,152.32,-14.21,54.73,12.12
12,jab,86738547.0,-32.863,-26.81,-37.982,151.04,285.0,-31.77,51.47,13.98
12,jab,86743547.0,-39.198,-28.07,-41.769,215.73,337.5,-69.7,48.58,16.11
12,jab,86748547.0,-35.219,-24.488,-37.68,284.09,348.29,-121.4,46.06,18.26
12,jab,86753547.0,-26.973,-18.067,-19.541,286.1,344.63,-169.27,43.8,20.49
12,jab,86758547.0,-15.735,-15.127,-3.591,202.13,297.62,-195.3,41.84,22.45
12,jab,86763547.0,-3.4,-15.931,5.282,77.99,223.72,-195.06,39.96,23.32
12,jab,86768547.0,5.899,-14.595,8.437,-15.49,122.87,-162.13,37.88,23.07
12,jab,86773547.0,10.75,-12.134,10.218,-94.02,16.16,-99.27,35.67,22.01
12,jab,86778547.0,11.301,-8.332,11.253,-152.2,-68.41,-24.09,33.48,20.45
12,jab,86783547.0,9.017,-4.817,11.952,-198.23,-123.29,45.37,31.4,18.74
12,jab,86788547.0,5.028,-2.404,12.086,-235.49,-157.87,100.3,29.39,17.15
12,jab,86793547.0,0.364,-1.647,10.716,-256.16,-177.01,140.49,27.37,15.9
12,jab,86798547.0,-3.366,-1.508,7.901,-256.65,-180.91,169.39,25.35,15.15
12,jab,86803547.0,-5.895,-2.284,5.258,-239.7,-172.5,193.66,23.2,14.92
12,jab,86808547.0,-7.834,-2.926,3.021,-207.5,-157.01,212.93,20.84,15.09
12,jab,86813547.0,-8.538,-3.912,1.858,-167.13,-136.65,234.45,18.31,15.38
12,jab,86818547.0,-8.839,-5.057,1.302,-116.65,-117.68,246.59,15.86,15.68
12,jab,86823548.0,-8.882,-5.219,1.413,-73.6,-103.48,251.34,13.69,16.03
12,jab,86828548.0,-7.958,-5.55,1.235,-43.29,-89.09,252.13,11.65,16.37
12,jab,86833548.0,-7.724,-6.158,1.279,-21.04,-65.91,250.91,9.75,16.73
12,jab,86838548.0,-7.618,-7.13,1.058,-9.21,-39.21,247.26,7.88,17.14
12,jab,86843548.0,-7.772,-7.906,0.824,-4.09,-9.39,240.67,6.02,17.64
12,jab,86848548.0,-8.14,-8.447,1.106,-6.4,18.6,229.21,4.22,18.25
12,jab,86853548.0,-8.408,-8.691,1.719,-14.76,40.55,211.89,2.48,18.95
12,jab,86858548.0,-8.672,-8.782,2.523,-27.2,55.79,190.24,0.82,19.72
12,jab,86863548.0,-8.701,-8.653,3.266,-42.26,61.16,167.2,-0.79,20.49
12,jab,86868548.0,-8.37,-8.504,3.912,-56.95,58.6,145.55,-2.36,21.2
12,jab,86873548.0,-7.872,-8.126,4.448,-70.24,52.26,129.94,-3.88,21.84
12,jab,86878548.0,-7.389,-7.312,4.86,-83.11,45.91,123.66,-5.34,22.43
12,jab,86883548.0,-6.991,-6.105,5.267,-95.06,37.5,125.49,-6.68,22.98
12,jab,86888548.0,-6.771,-4.961,5.339,-105.12,26.77,134.02,-7.92,23.51
12,jab,86893548.0,-6.924,-4.056,5.847,-110.18,10.55,146.04,-9.0,23.98
12,jab,86898548.0,-6.828,-3.29,5.847,-111.22,-11.4,158.84,-9.95,24.35
12,jab,86903548.0,-6.79,-2.49,5.722,-109.27,-32.01,172.32,-10.76,24.66
12,jab,86908548.0,-6.78,-1.686,5.2,-104.88,-51.1,185.98,-11.41,24.94
12,jab,86913548.0,-7.149,-1.034,4.659,-98.96,-62.74,200.73,-11.92,25.26
12,jab,86918548.0,-7.714,-0.373,4.233,-91.59,-71.83,215.06,-12.23,25.62
12,jab,86923548.0,-8.404,0.124,3.788,-85.85,-77.32,227.5,-12.37,26.04
12,jab,86928548.0,-9.175,0.326,3.443,-82.68,-77.68,238.23,-12.42,26.53
12,jab,86933548.0,-9.917,0.187,3.041,-80.98,-74.51,246.34,-12.5,27.09
12,jab,86938548.0,-10.673,-0.148,2.725,-80.55,-68.84,249.39,-12.71,27.73
12,jab,86943548.0,-11.387,-0.311,2.409,-80.67,-59.57,248.35,-12.99,28.44
12,jab,86948548.0,-11.966,-0.426,2.15,-82.01,-45.06,244.94,-13.36,29.24
12,jab,86953548.0,-12.45,-0.388,2.078,-84.76,-26.28,238.84,-13.72,30.14
12,jab,86958548.0,-12.565,-0.172,2.217,-88.41,-8.35,228.23,-13.97,31.09
12,jab,86963548.0,-12.388,0.225,2.428,-92.8,5.67,213.35,-14.04,32.07
12,jab,86968548.0,-11.923,0.747,2.557,-97.26,15.06,195.91,-13.91,33.06
12,jab,86973548.0,-11.238,1.269,2.476,-100.91,20.55,177.8,-13.58,34.02
12,jab,86978548.0,-10.568,1.81,2.523,-102.5,25.18,161.16,-13.1,34.93
12,jab,86983548.0,-10.056,2.284,2.672,-102.26,30.06,147.32,-12.53,35.8
12,jab,86988548.0,-9.754,2.84,2.854,-99.76,33.66,136.34,-11.87,36.6
12,jab,86993548.0,-9.51,3.347,2.959,-96.22,37.2,128.23,-11.13,37.34
12,jab,86998548.0,-9.232,3.725,2.931,-92.2,41.04,123.05,-10.32,38.05
12,jab,87003548.0,-9.041,3.946,2.844,-87.8,43.84,117.87,-9.46,38.74
12,jab,87008548.0,-8.48,4.214,2.246,-85.67,41.89,111.59,-8.46,39.38
12,jab,87013548.0,-8.179,4.535,2.274,-82.74,37.74,106.71,-7.42,39.95
12,jab,87018548.0,-7.685,5.037,1.719,-78.66,32.93,104.33,-6.24,40.41
12,jab,87023548.0,-7.326,5.095,1.355,-74.51,31.83,105.06,-4.98,40.85
12,jab,87028548.0,-7.125,5.152,1.025,-70.18,33.6,106.52,-3.65,41.27
12,jab,87033548.0,-7.12,5.272,0.627,-65.37,34.57,107.8,-2.23,41.68
12,jab,87038548.0,-7.077,5.373,0.393,-64.51,33.96,108.11,-0.78,42.06
12,jab,87043548.0,-7.187,5.488,-0.038,-60.0,34.76,107.8,0.75,42.45
12,jab,87048548.0,-7.46,5.741,-0.215,-55.98,34.7,102.74,2.3,42.81
12,jab,87053548.0,-7.59,5.746,-0.134,-53.11,36.04,94.51,3.82,43.19
12,jab,87058548.0,-7.652,5.559,0.105,-51.04,39.09,84.51,5.27,43.6
12,jab,87063548.0,-7.532,5.516,0.373,-50.06,43.96,73.29,6.64,44.02
12,jab,87068548.0,-7.254,5.827,0.943,-50.85,48.84,62.32,7.88,44.39
12,jab,87073548.0,-6.661,6.416,1.413,-53.41,52.38,51.77,9.01,44.67
12,jab,87078548.0,-5.909,7.245,1.36,-56.71,56.95,44.57,10.14,44.83
12,jab,87083548.0,-5.842,7.977,1.772,-59.94,66.46,40.67,11.19,44.97
12,jab,87088548.0,-5.277,8.705,1.7,-63.23,66.16,38.29,12.24,45.01
12,jab,87093548.0,-4.803,9.309,1.494,-64.45,63.35,38.6,13.29,44.96
12,jab,87098548.0,-4.357,9.912,1.197,-65.55,60.0,39.88,14.37,44.83
12,jab,87103548.0,-4.051,10.276,0.991,-65.85,56.22,40.79,15.45,44.63
12,jab,87108548.0,-3.946,10.467,0.886,-64.27,51.71,40.37,16.53,44.41
12,jab,87113548.0,-3.893,10.439,0.852,-61.04,44.02,38.35,17.61,44.14
12,jab,87118548.0,-3.888,10.013,0.934,-56.89,34.33,34.57,18.67,43.85
12,jab,87123548.0,-4.482,9.922,0.934,-43.66,11.22,21.28,19.77,43.51
12,jab,87128548.0,-3.984,10.391,0.876,-45.37,0.12,18.35,20.86,43.06
12,jab,87133548.0,-3.735,10.817,1.48,-47.68,-2.8,16.1,21.85,42.56
12,jab,87138548.0,-3.601,11.128,1.867,-50.0,-7.01,18.29,22.78,42.03
13,jab,91263566.0,2.571,23.181,2.15,-15.18,181.46,-155.0,85.7,28.1
13,jab,91268567.0,3.548,23.66,2.863,-11.28,175.12,-155.06,85.6,28.22
13,jab,91273568.0,4.391,24.21,3.237,-6.22,160.43,-152.44,85.5,28.24
13,jab,91278568.0,4.822,24.474,3.29,-0.49,140.0,-149.15,85.44,28.14
13,jab,91283568.0,4.942,24.469,2.954,5.73,117.38,-147.5,85.42,27.93
13,jab,91288568.0,4.827,24.584,2.509,11.65,93.96,-147.5,85.45,27.61
13,jab,91293568.0,4.621,24.665,1.992,14.94,71.52,-148.66,85.52,27.2
13,jab,91298569.0,4.305,24.32,1.542,16.4,52.44,-152.2,85.62,26.71
13,jab,91303569.0,4.041,23.501,0.939,16.04,36.22,-158.29,85.74,26.16
13,jab,91308569.0,3.654,22.098,0.57,15.61,24.15,-167.5,85.87,25.56
13,jab,91313569.0,3.218,20.394,0.23,15.91,13.17,-181.4,86.02,24.94
13,jab,91318569.0,3.17,18.646,0.148,16.89,3.9,-198.66,86.17,24.27
13,jab,91323569.0,3.213,16.999,-0.038,18.05,-3.54,-217.26,86.34,23.55
13,jab,91328569.0,3.352,15.586,-0.34,21.28,-9.63,-233.66,86.54,22.79
13,jab,91333569.0,3.395,14.293,-0.555,27.38,-14.63,-247.87,86.79,21.99
13,jab,91338569.0,2.998,13.331,-0.412,37.5,-21.22,-257.8,87.07,21.2
13,jab,91343569.0,2.705,13.163,-0.196,55.91,-31.52,-255.12,87.42,20.39
13,jab,91348569.0,3.146,12.732,-0.383,81.77,-40.91,-240.37,87.91,19.5
13,jab,91353569.0,3.127,10.865,-0.431,110.43,-47.2,-220.55,88.54,18.56
13,jab,91358569.0,2.892,7.776,0.215,137.38,-53.17,-201.83,89.21,17.52
13,jab,91363569.0,2.543,3.773,1.317,156.4,-61.95,-187.2,89.61,16.22
13,jab,91368569.0,1.719,-0.201,2.629,165.37,-75.79,-180.0,88.54,14.86
13,jab,91373569.0,0.723,-3.989,3.74,165.73,-94.15,-182.2,86.64,13.95
13,jab,91378569.0,-0.311,-7.283,5.248,159.57,-111.46,-191.71,84.61,13.16
13,jab,91383569.0,-1.767,-10.314,6.618,149.09,-128.05,-206.65,82.5,12.44
13,jab,91388569.0,-3.007,-12.752,8.016,141.28,-142.01,-226.59,80.38,11.72
13,jab,91393569.0,-4.214,-14.36,9.318,139.15,-155.85,-251.77,78.32,11.0
13,jab,91398569.0,-4.961,-15.84,10.965,143.9,-168.29,-278.05,76.35,10.24
13,jab,91403569.0,-5.665,-16.774,12.795,155.98,-181.46,-300.98,74.53,9.45
13,jab,91408569.0,-6.373,-17.636,14.533,174.02,-195.49,-314.82,72.89,8.61
13,jab,91413569.0,-7.614,-18.766,15.993,196.83,-208.11,-318.35,71.4,7.76
13,jab,91418569.0,-9.376,-20.107,17.315,221.77,-221.28,-313.6,70.07,6.91
13,jab,91423569.0,-11.123,-21.126,18.335,246.65,-235.79,-302.13,68.9,6.05
13,jab,91428569.0,-12.809,-20.949,17.923,267.07,-248.54,-283.6,67.84,5.21
13,jab,91433569.0,-14.236,-18.713,12.723,275.18,-236.89,-242.2,66.72,4.59
13,jab,91438569.0,-16.984,-24.344,17.066,282.93,-220.37,-203.9,65.67,4.01
13,jab,91443569.0,-16.85,-25.259,18.014,275.37,-241.59,-196.34,64.62,3.32
13,jab,91448569.0,-18.067,-23.66,14.102,260.79,-240.3,-195.98,63.42,2.74
13,jab,91453569.0,-18.296,-20.609,6.9,260.79,-221.1,-194.63,62.0,2.41
13,jab,91458569.0,-18.311,-18.636,-0.139,275.24,-183.48,-187.68,60.3,2.35
13,jab,91463569.0,-17.995,-18.354,-3.63,293.05,-125.49,-179.63,58.5,2.56
13,jab,91468569.0,-18.387,-17.684,-2.729,292.93,-76.52,-177.99,56.79,3.05
13,jab,91473569.0,-17.731,-16.75,-4.908,265.61,-42.38,-170.85,54.83,3.69
13,jab,91478569.0,-16.261,-15.146,-11.411,247.2,-0.85,-156.59,52.41,4.43
13,jab,91483569.0,-17.459,-13.8,-15.012,241.28,41.22,-141.52,49.79,5.35
13,jab,91488569.0,-18.766,-12.522,-16.271,241.71,71.1,-128.11,47.13,6.44
13,jab,91493569.0,-18.435,-13.087,-14.293,226.16,86.65,-118.17,44.55,7.61
13,jab,91498569.0,-16.673,-13.216,-8.155,181.4,92.07,-97.26,42.11,8.85
13,jab,91503569.0,-13.987,-11.904,-1.839,100.55,66.46,-58.29,39.79,9.98
13,jab,91508569.0,-10.903,-9.553,2.102,-0.91,26.77,-5.61,37.44,10.88
13,jab,91513569.0,-8.313,-6.34,3.606,-95.67,-17.07,53.35,35.01,11.55
13,jab,91518569.0,-6.823,-4.07,2.964,-161.34,-59.63,110.98,32.44,12.1
13,jab,91523569.0,-5.732,-3.318,2.045,-185.06,-93.48,158.78,29.72,12.51
13,jab,91528569.0,-5.454,-3.357,2.868,-177.62,-117.56,194.27,27.26,12.71
13,jab,91533570.0,-5.574,-3.577,4.266,-159.02,-133.72,215.18,25.14,12.7
13,jab,91538570.0,-5.899,-3.692,4.549,-135.79,-146.89,224.7,23.19,12.63
13,jab,91543570.0,-6.273,-3.634,4.357,-107.01,-149.02,233.05,21.41,12.6
13,jab,91548570.0,-7.02,-3.783,4.329,-77.2,-145.55,241.59,19.78,12.65
13,jab,91553570.0,-7.714,-4.027,4.899,-49.39,-135.55,250.18,18.35,12.75
13,jab,91558570.0,-8.399,-4.463,5.617,-32.32,-123.11,257.87,17.06,12.88
13,jab,91563570.0,-8.801,-5.114,5.804,-24.45,-107.07,262.5,15.77,13.07
13,jab,91568570.0,-8.792,-5.569,5.119,-20.98,-85.61,262.56,14.4,13.37
13,jab,91573570.0,-9.021,-6.033,4.324,-19.7,-58.54,256.77,12.93,13.83
13,jab,91578570.0,-9.208,-6.287,3.338,-19.15,-26.71,246.1,11.34,14.47
13,jab,91583570.0,-9.629,-6.991,2.643,-18.11,11.34,228.66,9.63,15.28
13,jab,91588570.0,-9.974,-7.264,2.959,-21.1,49.7,203.54,7.98,16.25
13,jab,91593570.0,-10.08,-7.173,3.184,-30.0,82.62,175.91,6.35,17.38
13,jab,91598570.0,-10.108,-6.823,3.433,-40.12,109.33,148.9,4.76,18.62
13,jab,91603570.0,-9.687,-6.019,3.855,-49.09,127.01,127.13,3.28,19.94
13,jab,91608570.0,-9.175,-4.903,4.64,-57.99,137.44,113.11,2.0,21.29
13,jab,91613570.0,-8.882,-3.816,5.511,-67.8,138.84,107.2,0.93,22.61
13,jab,91618570.0,-8.677,-2.71,6.158,-74.27,130.67,109.45,0.08,23.84
13,jab,91623570.0,-8.298,-1.489,6.79,-75.43,113.66,119.39,-0.54,24.92
13,jab,91628570.0,-7.92,-0.211,7.111,-72.38,87.93,135.79,-0.92,25.81
13,jab,91633570.0,-7.872,0.852,7.245,-66.77,58.05,156.16,-1.09,26.52
13,jab,91638570.0,-8.078,1.633,6.924,-59.09,25.85,177.07,-1.1,27.09
13,jab,91643570.0,-8.49,2.093,6.187,-50.55,-3.6,196.83,-0.95,27.58
13,jab,91648570.0,-9.007,2.241,5.511,-42.44,-26.77,213.66,-0.7,28.03
13,jab,91653570.0,-9.874,1.92,4.975,-37.26,-44.21,226.65,-0.44,28.49
13,jab,91658570.0,-10.587,1.714,4.252,-36.34,-54.27,234.27,-0.17,28.98
13,jab,91663570.0,-11.147,1.571,3.515,-39.45,-54.09,237.07,0.12,29.56
13,jab,91668570.0,-11.593,1.513,3.084,-45.3,-44.94,235.67,0.42,30.21
13,jab,91673570.0,-11.736,1.446,2.883,-53.66,-29.51,230.91,0.68,30.96
13,jab,91678570.0,-11.799,1.585,2.911,-64.82,-11.77,222.74,0.92,31.77
13,jab,91683570.0,-11.612,1.925,2.82,-77.2,8.23,211.71,1.21,32.65
13,jab,91688570.0,-11.234,2.509,2.504,-88.6,29.82,199.76,1.65,33.59
13,jab,91693570.0,-10.697,3.203,2.361,-97.5,52.13,187.8,2.21,34.56
13,jab,91698570.0,-9.898,4.07,2.816,-104.02,71.77,175.06,2.77,35.49
13,jab,91703570.0,-8.906,5.133,3.548,-108.9,85.55,162.07,3.28,36.3
13,jab,91708570.0,-7.863,6.316,3.836,-111.04,94.94,150.67,3.85,36.98
13,jab,91713570.0,-7.144,7.341,3.778,-108.29,101.71,140.12,4.5,37.55
13,jab,91718570.0,-6.656,8.346,3.754,-101.77,106.4,130.61,5.22,38.04
13,jab,91723570.0,-6.191,9.266,3.634,-91.59,107.93,121.71,6.04,38.45
13,jab,91728570.0,-5.674,9.902,3.347,-78.23,106.95,113.84,6.96,38.77
13,jab,91733570.0,-5.191,10.29,3.443,-63.78,104.27,108.54,7.94,39.02
13,jab,91738570.0,-4.731,10.367,3.749,-49.57,98.96,105.98,8.94,39.19
13,jab,91743570.0,-4.549,10.223,3.831,-37.8,92.62,104.82,9.97,39.31
13,jab,91748570.0,-4.712,9.969,3.725,-28.35,87.74,103.41,11.02,39.43
13,jab,91753570.0,-5.047,9.538,3.428,-21.95,86.16,100.67,12.1,39.6
13,jab,91758570.0,-5.488,9.127,3.112,-18.48,89.09,96.16,13.19,39.83
13,jab,91763570.0,-5.842,8.782,2.787,-18.11,95.43,90.0,14.28,40.15
13,jab,91768570.0,-6.249,8.557,2.265,-20.06,105.91,81.04,15.4,40.57
13,jab,91773570.0,-6.445,8.538,1.638,-23.35,119.27,69.51,16.56,41.08
13,jab,91778570.0,-6.407,8.859,1.202,-26.52,132.99,56.1,17.75,41.62
13,jab,91783570.0,-5.957,9.395,0.972,-29.27,146.04,43.41,18.93,42.15
13,jab,91788570.0,-5.191,9.936,1.197,-33.05,155.85,33.29,20.05,42.62
13,jab,91793570.0,-4.329,10.463,1.551,-37.74,159.94,26.1,21.1,42.99
13,jab,91798570.0,-3.596,10.874,1.877,-43.84,158.72,23.11,22.07,43.27
13,jab,91803570.0,-3.175,11.066,2.069,-51.16,153.9,23.29,22.96,43.48
13,jab,91808570.0,-2.988,11.224,2.116,-58.23,146.59,25.37,23.8,43.62
13,jab,91813570.0,-2.653,11.382,2.327,-64.09,136.59,27.74,24.58,43.67
13,jab,91818570.0,-2.207,11.425,2.739,-69.33,123.17,30.73,25.28,43.61
13,jab,91823570.0,-2.184,11.301,3.089,-73.23,107.2,33.72,25.91,43.48
13,jab,91828570.0,-2.456,11.224,3.4,-74.82,90.3,36.1,26.49,43.29
13,jab,91833570.0,-2.385,11.368,3.496,-74.02,73.54,38.48,27.05,43.01
13,jab,91838570.0,-2.26,11.526,3.654,-70.43,57.32,40.37,27.62,42.64
13,jab,91843570.0,-2.337,11.636,3.749,-63.66,41.89,41.1,28.2,42.21
13,jab,91848570.0,-2.677,11.66,3.716,-54.27,28.54,40.73,28.81,41.75
13,jab,91853570.0,-3.175,11.66,3.419,-42.62,18.48,38.78,29.5,41.3
13,jab,91858570.0,-3.673,11.803,2.993,-30.06,13.05,36.52,30.28,40.88
13,jab,91863570.0,-4.065,11.971,2.361,-17.99,13.41,36.1,31.16,40.49
14,jab,95918591.0,-0.527,22.501,1.599,17.93,3.54,-45.55,81.8,28.83
14,jab,95923591.0,0.0,22.247,0.541,24.88,17.01,-46.52,82.06,28.34
14,jab,95928591.0,0.517,21.907,-0.445,28.54,35.73,-48.11,82.38,27.92
14,jab,95933591.0,0.953,21.328,-1.326,31.34,57.2,-51.52,82.76,27.59
14,jab,95938591.0,1.302,20.763,-1.786,32.74,76.4,-58.11,83.16,27.34
14,jab,95943591.0,2.102,20.293,-1.901,32.74,89.39,-66.83,83.57,27.11
14,jab,95948591.0,3.141,20.068,-1.7,31.04,96.52,-76.22,83.94,26.87
14,jab,95953591.0,4.07,19.939,-1.369,27.32,97.32,-85.3,84.28,26.58
14,jab,95958591.0,4.98,19.522,-0.943,22.38,90.85,-94.45,84.56,26.2
14,jab,95963591.0,5.66,18.785,-0.268,16.77,77.2,-104.63,84.76,25.72
14,jab,95968591.0,6.321,17.995,0.469,10.67,57.13,-114.94,84.89,25.1
14,jab,95973591.0,6.737,16.927,1.001,1.34,32.44,-124.76,84.93,24.32
14,jab,95978591.0,6.713,15.711,1.513,-10.3,4.02,-134.09,84.87,23.4
14,jab,95983591.0,6.694,14.7,2.011,-24.57,-26.34,-142.74,84.7,22.31
14,jab,95988591.0,6.34,13.508,2.222,-40.3,-57.01,-150.49,84.42,21.09
14,jab,95993591.0,5.626,12.206,2.184,-56.16,-84.7,-157.68,84.05,19.77
14,jab,95998591.0,4.463,10.884,1.829,-71.59,-105.98,-165.55,83.63,18.41
14,jab,96003591.0,3.256,9.85,1.331,-86.59,-120.37,-175.18,83.18,17.09
14,jab,96008591.0,2.025,8.796,0.627,-100.0,-125.85,-186.89,82.75,15.87
14,jab,96013591.0,0.565,7.714,-0.23,-109.21,-120.85,-198.41,82.39,14.88
14,jab,96018591.0,-0.895,6.661,-1.346,-110.85,-102.93,-208.54,82.23,14.23
14,jab,96023591.0,-2.394,5.459,-2.049,-103.78,-70.43,-219.88,82.29,14.05
14,jab,96028591.0,-3.682,4.247,-2.528,-88.23,-29.7,-235.91,82.62,14.35
14,jab,96033591.0,-4.63,3.065,-2.533,-64.82,14.88,-254.57,83.24,15.13
14,jab,96038591.0,-4.319,2.385,-2.179,-35.06,54.76,-271.46,84.06,16.16
14,jab,96043591.0,-2.758,1.714,-1.077,-2.44,83.66,-282.2,84.81,17.32
14,jab,96048591.0,-0.828,0.33,0.527,27.68,98.9,-283.6,83.89,18.52
14,jab,96053591.0,0.852,-1.647,2.763,52.2,97.07,-276.28,81.85,18.33
14,jab,96058591.0,2.227,-4.223,5.454,70.24,76.1,-263.11,79.8,17.97
14,jab,96063591.0,3.151,-6.943,7.906,81.1,37.44,-247.74,77.78,17.46
14,jab,96068591.0,3.342,-9.462,9.816,86.65,-11.59,-234.63,75.77,16.78
14,jab,96073591.0,2.514,-11.947,10.927,88.48,-64.33,-226.71,73.73,15.96
14,jab,96078591.0,0.838,-14.729,10.884,90.91,-111.16,-227.2,71.63,15.04
14,jab,96083592.0,-1.8,-17.186,10.156,98.48,-146.4,-237.2,69.5,14.12
14,jab,96088592.0,-4.626,-19.259,9.16,111.95,-167.2,-253.6,67.36,13.27
14,jab,96093592.0,-7.302,-21.026,8.873,128.96,-174.82,-271.65,65.31,12.5
14,jab,96098592.0,-9.371,-22.027,9.443,145.55,-177.74,-287.38,63.38,11.81
14,jab,96103592.0,-10.803,-22.405,10.688,158.05,-180.43,-295.98,61.59,11.16
14,jab,96108592.0,-12.048,-22.879,11.847,165.55,-187.62,-296.71,59.92,10.52
14,jab,96113592.0,-13.149,-22.525,13.949,161.1,-200.06,-290.55,58.35,9.85
14,jab,96118592.0,-14.087,-21.371,14.437,148.41,-222.93,-277.2,56.79,9.14
14,jab,96123592.0,-15.131,-19.867,13.173,134.39,-245.85,-252.07,55.18,8.4
14,jab,96128592.0,-16.702,-17.933,10.554,130.37,-262.26,-215.98,53.53,7.72
14,jab,96133592.0,-18.311,-16.142,7.451,134.39,-264.76,-176.95,51.81,7.18
14,jab,96138592.0,-19.728,-14.016,3.352,148.23,-243.48,-139.57,49.97,6.92
14,jab,96143592.0,-21.126,-13.556,0.062,162.32,-195.98,-111.46,47.97,6.97
