rep,label,t_us,ax,ay,az,gx,gy,gz,roll,pitch
0,jab,195053075.0,0.053,11.985,-5.526,3.84,-16.22,8.17,119.73,-14.09
0,jab,195058075.0,-0.622,13.039,-5.65,2.74,-20.12,7.68,119.62,-13.86
0,jab,195063075.0,-1.566,14.155,-5.784,1.4,-24.27,7.2,119.47,-13.59
0,jab,195068075.0,-2.71,15.069,-5.899,0.24,-28.35,7.13,119.31,-13.26
0,jab,195073075.0,-4.276,15.864,-5.665,-0.06,-30.85,8.78,119.12,-12.86
0,jab,195078075.0,-6.349,16.534,-4.994,1.59,-31.1,13.17,118.88,-12.36
0,jab,195083075.0,-8.863,17.473,-4.204,6.1,-29.57,21.65,118.6,-11.73
0,jab,195088075.0,-11.564,18.617,-3.347,12.68,-26.46,31.83,118.3,-10.99
0,jab,195093075.0,-14.447,19.901,-2.049,21.65,-22.68,40.61,117.96,-10.17
0,jab,195098075.0,-17.511,21.471,-0.661,34.94,-18.96,48.05,117.6,-9.27
0,jab,195103075.0,-21.639,23.88,0.958,56.4,-11.71,55.37,117.28,-8.3
0,jab,195108075.0,-24.852,26.092,2.112,71.52,-7.99,60.24,116.99,-7.31
0,jab,195113075.0,-28.558,29.319,2.605,92.13,-8.96,70.61,116.8,-6.32
0,jab,195118075.0,-31.68,32.197,2.619,101.83,-13.9,77.32,116.67,-5.37
0,jab,195123075.0,-32.791,33.351,1.226,94.27,-27.74,72.07,116.56,-4.51
0,jab,195128075.0,-33.184,32.973,0.69,78.23,-44.88,57.93,116.39,-3.74
0,jab,195133075.0,-33.117,31.714,-0.369,58.6,-75.67,40.91,116.16,-3.11
0,jab,195138075.0,-32.666,30.78,-2.15,43.05,-114.51,33.11,115.93,-2.68
0,jab,195143075.0,-31.211,30.44,-4.276,31.22,-162.8,38.84,115.72,-2.51
0,jab,195148075.0,-28.85,30.066,-4.899,26.77,-196.46,50.98,115.52,-2.56
0,jab,195153076.0,-25.446,29.243,-4.788,26.46,-221.65,65.79,115.33,-2.78
0,jab,195158076.0,-21.691,27.758,-4.075,30.24,-240.06,81.4,115.14,-3.14
0,jab,195163076.0,-18.086,25.91,-3.069,38.35,-251.04,100.49,114.96,-3.62
0,jab,195168076.0,-14.715,24.023,-2.049,51.71,-253.11,124.02,114.81,-4.16
0,jab,195173076.0,-11.296,22.41,-0.905,69.57,-244.39,152.13,114.7,-4.74
0,jab,195178076.0,-7.752,20.877,-0.062,90.98,-223.54,182.87,114.66,-5.33
0,jab,195183076.0,-4.554,19.709,0.575,112.32,-191.65,215.43,114.68,-5.9
0,jab,195188076.0,-1.743,18.206,1.077,131.89,-148.23,250.85,114.77,-6.4
0,jab,195193076.0,0.292,16.285,1.312,149.82,-97.56,288.11,114.91,-6.77
0,jab,195198076.0,1.513,14.064,0.56,165.49,-51.59,325.37,115.18,-7.01
0,jab,195203076.0,1.939,11.511,-0.814,178.11,-13.41,361.83,115.63,-7.13
0,jab,195208076.0,1.824,8.37,-1.575,189.57,17.07,398.6,116.26,-7.14
0,jab,195213076.0,1.58,3.773,-1.173,203.78,35.12,435.3,117.08,-7.26
0,jab,195218076.0,1.322,-2.15,0.215,222.99,43.41,472.87,114.14,-7.54
0,jab,195223076.0,1.518,-9.38,2.184,249.09,47.07,512.01,111.54,-7.33
0,jab,195228076.0,2.093,-17.281,3.926,280.49,45.37,550.18,109.14,-7.1
0,jab,195233076.0,3.543,-27.409,4.961,309.7,40.06,589.82,106.88,-6.91
0,jab,195238076.0,6.742,-42.162,4.654,334.39,30.79,624.39,104.71,-6.8
0,jab,195243076.0,13.125,-62.738,0.043,349.15,21.77,651.22,102.53,-6.79
0,jab,195248076.0,12.862,-79.928,-3.812,341.83,-26.28,678.29,100.3,-6.97
0,jab,195253076.0,19.23,-93.661,-21.672,341.28,-97.62,716.52,97.9,-7.53
0,jab,195258076.0,15.294,-88.222,-34.228,339.02,-155.49,692.8,95.38,-8.33
0,jab,195263076.0,5.918,-73.349,-41.659,319.57,-267.01,647.56,92.65,-9.55
0,jab,195268076.0,1.46,-60.621,-43.919,253.54,-382.68,577.2,89.52,-11.26
0,jab,195273076.0,4.712,-44.561,-37.891,164.94,-513.17,456.28,85.93,-13.64
0,jab,195278076.0,14.734,-24.229,-28.946,59.76,-677.5,287.5,81.7,-17.11
0,jab,195283076.0,25.819,-6.852,-14.734,-35.18,-823.17,97.44,76.79,-21.96
0,jab,195288076.0,31.062,7.772,-1.844,-84.27,-859.76,-78.78,76.91,-27.24
0,jab,195293076.0,32.456,16.822,2.614,-75.24,-785.61,-164.27,76.63,-31.79
0,jab,195298076.0,34.17,14.514,-1.422,-64.33,-631.1,-187.62,76.69,-35.59
0,jab,195303076.0,30.871,4.487,-6.397,-91.65,-424.09,-228.23,77.61,-38.47
0,jab,195308076.0,25.086,-7.542,-13.968,-134.39,-201.71,-302.07,72.37,-39.84
0,jab,195313076.0,19.652,-14.834,-26.001,-193.29,7.01,-366.52,66.97,-39.68
0,jab,195318076.0,17.947,-19.297,-34.711,-243.23,182.13,-378.78,61.42,-38.48
0,jab,195323076.0,19.704,-22.774,-36.746,-264.88,305.49,-346.04,55.93,-36.7
0,jab,195328076.0,19.747,-24.153,-31.627,-260.43,371.89,-298.05,50.68,-34.67
0,jab,195333076.0,15.304,-22.951,-21.993,-246.89,380.55,-255.12,45.78,-32.63
0,jab,195338076.0,8.25,-21.15,-12.277,-230.98,347.26,-218.84,41.33,-30.65
0,jab,195343076.0,1.269,-20.274,-5.435,-218.41,288.29,-183.6,37.33,-28.69
0,jab,195348076.0,-3.864,-20.648,-3.031,-211.4,217.38,-152.44,33.58,-26.84
0,jab,195353076.0,-6.22,-22.075,-3.706,-207.62,145.55,-141.83,29.9,-25.28
0,jab,195358076.0,-6.867,-22.855,-5.21,-204.27,85.98,-169.57,26.25,-24.03
0,jab,195363076.0,-6.129,-21.404,-7.144,-203.29,43.6,-224.33,22.56,-23.03
0,jab,195368076.0,-4.314,-18.057,-8.226,-205.49,21.1,-284.88,18.81,-22.22
0,jab,195373076.0,-1.657,-14.073,-8.638,-207.8,10.67,-328.66,14.98,-21.61
0,jab,195378076.0,1.733,-10.942,-8.586,-212.5,9.21,-346.04,11.08,-21.27
0,jab,195383076.0,5.387,-9.266,-8.14,-218.41,19.02,-340.3,7.16,-21.23
0,jab,195388076.0,8.504,-8.897,-7.465,-223.6,36.04,-322.07,3.32,-21.35
0,jab,195393076.0,10.013,-9.38,-6.905,-223.66,56.65,-299.33,-0.37,-21.46
0,jab,195398076.0,9.486,-9.969,-6.828,-218.96,75.49,-274.94,-3.92,-21.42
0,jab,195403076.0,7.451,-10.439,-6.876,-210.91,90.06,-249.15,-7.34,-21.17
0,jab,195408076.0,4.894,-10.731,-7.02,-201.59,99.27,-225.55,-10.65,-20.68
0,jab,195413076.0,2.691,-10.731,-7.072,-192.56,101.1,-209.7,-13.85,-20.01
0,jab,195418076.0,1.015,-10.223,-7.116,-183.78,95.91,-202.62,-16.97,-19.23
0,jab,195423076.0,0.072,-9.002,-7.149,-176.95,86.34,-202.13,-20.06,-18.43
0,jab,195428076.0,0.086,-7.345,-7.321,-172.99,76.77,-204.7,-23.21,-17.69
0,jab,195433076.0,0.828,-5.435,-7.374,-171.28,72.38,-207.44,-26.45,-17.09
0,jab,195438076.0,2.174,-3.692,-7.479,-171.4,75.85,-207.93,-29.84,-16.67
0,jab,195443076.0,3.658,-2.246,-7.36,-173.17,87.2,-204.94,-33.35,-16.41
0,jab,195448076.0,4.865,-0.867,-7.082,-172.62,105.67,-196.95,-36.99,-16.25
0,jab,195453076.0,5.454,0.402,-6.804,-170.67,125.67,-184.02,-33.56,-16.09
0,jab,195458076.0,5.397,1.441,-6.507,-167.13,144.45,-168.41,-30.35,-15.84
0,jab,195463076.0,4.803,2.308,-6.268,-162.56,157.38,-153.05,-27.35,-15.46
0,jab,195468076.0,3.768,2.954,-6.081,-157.74,163.54,-140.79,-24.49,-14.94
0,jab,195473076.0,2.394,3.405,-5.942,-152.32,163.23,-132.07,-21.74,-14.22
0,jab,195478076.0,1.068,3.754,-5.875,-146.77,156.34,-125.61,-19.08,-13.35
0,jab,195483076.0,-0.053,4.022,-5.799,-141.89,144.33,-120.37,-16.49,-12.36
0,jab,195488076.0,-0.675,4.175,-5.521,-137.13,130.18,-115.79,-13.97,-11.37
0,jab,195493076.0,-0.824,4.257,-5.243,-132.13,116.1,-111.28,-11.52,-10.43
0,jab,195498076.0,-0.527,4.238,-4.894,-127.5,103.6,-105.91,-9.13,-9.62
0,jab,195503076.0,-0.034,4.31,-4.63,-123.78,93.72,-100.73,-6.82,-8.96
0,jab,195508076.0,0.383,4.606,-4.405,-120.18,86.28,-94.27,-4.59,-8.43
0,jab,195513076.0,0.747,5.176,-4.29,-117.32,81.95,-86.34,-2.48,-7.99
0,jab,195518076.0,1.053,5.818,-4.271,-115.3,78.96,-77.07,-0.47,-7.61
0,jab,195523076.0,1.255,6.412,-4.113,-113.96,77.07,-67.87,1.43,-7.26
0,jab,195528076.0,1.36,6.828,-3.917,-111.83,74.94,-58.72,3.25,-6.95
0,jab,195533076.0,1.331,7.159,-3.869,-108.84,72.38,-50.0,5.02,-6.64
0,jab,195538076.0,1.202,7.403,-3.998,-104.94,70.55,-41.46,6.77,-6.32
0,jab,195543076.0,1.164,7.537,-4.132,-100.37,70.79,-33.23,8.52,-6.0
0,jab,195548076.0,1.231,7.733,-4.228,-94.82,74.33,-26.1,10.26,-5.68
0,jab,195553076.0,1.441,7.858,-3.989,-87.93,80.24,-20.73,11.96,-5.36
0,jab,195558076.0,1.657,8.03,-3.754,-79.88,87.74,-16.95,13.63,-5.03
0,jab,195563076.0,1.863,8.337,-3.725,-72.13,94.45,-14.27,15.29,-4.7
0,jab,195568076.0,1.848,8.614,-3.677,-65.12,99.76,-11.95,16.92,-4.34
0,jab,195573076.0,1.556,9.026,-3.587,-57.74,103.9,-8.96,18.54,-3.93
0,jab,195578076.0,0.862,9.404,-3.476,-50.55,106.83,-4.39,20.12,-3.42
0,jab,195583076.0,0.01,9.716,-3.285,-43.84,107.5,0.37,21.68,-2.83
0,jab,195588076.0,-0.795,9.989,-3.175,-38.17,105.55,5.0,23.21,-2.17
0,jab,195593076.0,-1.489,10.195,-3.156,-33.72,99.57,8.11,24.73,-1.48
0,jab,195598076.0,-2.04,10.563,-3.309,-30.79,90.0,10.18,26.23,-0.8
0,jab,195603076.0,-2.466,10.922,-3.323,-28.9,77.44,11.59,27.7,-0.16
0,jab,195608076.0,-2.854,11.176,-3.179,-26.46,63.35,13.66,29.14,0.43
0,jab,195613076.0,-3.132,11.449,-3.045,-23.29,49.33,17.32,30.54,0.96
0,jab,195618076.0,-3.213,11.789,-3.112,-21.1,36.28,22.32,31.92,1.41
0,jab,195623076.0,-3.165,11.976,-3.218,-19.51,24.57,28.11,33.28,1.79
0,jab,195628076.0,-3.151,12.196,-3.563,-18.6,13.66,33.72,34.65,2.1
0,jab,195633076.0,-3.227,12.503,-4.295,-18.11,4.27,39.51,36.05,2.35
0,jab,195638076.0,-3.486,12.742,-4.966,-18.54,-3.11,45.79,37.46,2.58
0,jab,195643076.0,-3.768,12.847,-5.483,-18.29,-7.44,52.62,38.89,2.79
0,jab,195648076.0,-4.032,12.91,-5.698,-17.56,-9.02,59.02,40.3,3.01
1,jab,200223101.0,2.14,9.328,-3.567,1.52,10.85,3.72,115.34,-18.24
1,jab,200228101.0,2.093,9.524,-3.548,1.34,10.18,3.72,115.25,-18.06
1,jab,200233101.0,2.002,9.692,-3.524,1.28,9.88,4.21,115.15,-17.87
1,jab,200238101.0,1.93,9.759,-3.505,1.65,9.39,4.39,115.05,-17.68
1,jab,200243101.0,1.724,9.84,-3.448,2.32,10.0,5.0,114.94,-17.46
1,jab,200248101.0,1.484,9.96,-3.323,3.84,11.65,5.61,114.83,-17.22
1,jab,200253101.0,1.178,10.266,-3.093,6.1,14.7,6.46,114.7,-16.93
1,jab,200258101.0,0.809,10.774,-2.725,9.39,19.33,6.83,114.54,-16.58
1,jab,200263101.0,0.35,11.602,-2.102,13.9,26.04,7.13,114.32,-16.15
1,jab,200268101.0,-0.263,12.689,-1.542,19.15,34.7,7.32,114.07,-15.63
1,jab,200273101.0,-0.977,13.973,-0.766,25.0,46.52,8.17,113.77,-15.01
1,jab,200278101.0,-2.059,15.524,0.067,31.34,61.46,9.82,113.44,-14.26
1,jab,200283101.0,-3.563,17.358,0.996,38.17,77.38,12.74,113.1,-13.36
1,jab,200288101.0,-5.995,19.422,1.882,47.87,91.34,16.59,112.76,-12.31
1,jab,200293101.0,-9.208,21.792,2.6,60.49,101.46,22.56,112.46,-11.11
1,jab,200298101.0,-13.293,24.646,3.175,76.4,109.39,31.16,112.24,-9.79
1,jab,200303101.0,-18.287,28.118,3.414,92.62,115.67,39.82,112.11,-8.37
1,jab,200308101.0,-23.363,32.279,3.701,104.57,114.33,49.21,112.05,-6.93
1,jab,200313101.0,-27.84,37.129,3.898,115.06,102.87,53.9,112.05,-5.55
1,jab,200318101.0,-30.799,41.18,4.022,119.39,76.4,51.1,112.09,-4.33
1,jab,200323101.0,-31.321,42.88,3.922,114.7,32.32,39.88,112.1,-3.37
1,jab,200328101.0,-29.899,41.319,3.5,98.05,-18.84,19.02,112.04,-2.68
1,jab,200333101.0,-27.916,38.662,2.672,78.84,-67.07,0.73,111.91,-2.24
1,jab,200338101.0,-25.795,36.354,1.652,65.73,-104.27,-4.15,111.74,-1.99
1,jab,200343101.0,-23.722,35.152,0.876,61.59,-127.62,4.7,111.58,-1.9
1,jab,200348101.0,-21.677,34.625,0.283,61.71,-141.16,21.04,111.44,-1.91
1,jab,200353101.0,-19.819,33.504,0.326,61.77,-148.41,39.51,111.31,-1.99
1,jab,200358101.0,-18.158,31.326,0.8,61.4,-151.77,57.38,111.15,-2.09
1,jab,200363101.0,-16.233,28.376,1.302,62.68,-151.65,75.61,110.98,-2.2
1,jab,200368101.0,-13.896,25.244,1.81,68.23,-149.88,92.99,110.81,-2.31
1,jab,200373101.0,-11.291,22.209,2.658,79.15,-145.24,111.28,110.65,-2.44
1,jab,200378101.0,-8.423,19.623,2.921,96.28,-135.98,133.9,110.54,-2.6
1,jab,200383101.0,-5.44,17.19,2.82,114.21,-121.1,162.5,110.5,-2.79
1,jab,200388101.0,-2.567,14.691,2.337,131.95,-99.33,196.83,110.56,-3.03
1,jab,200393101.0,-0.182,11.784,2.433,151.34,-69.51,236.95,110.65,-3.29
1,jab,200398102.0,1.298,8.509,2.485,173.6,-35.18,281.95,110.77,-3.57
1,jab,200403102.0,2.217,4.961,2.073,193.48,-7.8,327.5,110.85,-3.98
1,jab,200408103.0,2.495,1.077,0.982,208.9,7.5,368.05,110.61,-5.06
1,jab,200413103.0,1.982,-4.549,-0.23,225.37,14.39,413.41,107.64,-5.36
1,jab,200418104.0,1.355,-9.974,-0.747,244.51,17.44,454.09,104.8,-5.32
1,jab,200423104.0,1.422,-16.017,-0.488,267.5,14.09,495.24,102.18,-5.24
1,jab,200428104.0,1.911,-21.337,-0.948,285.91,6.65,524.21,99.69,-5.21
1,jab,200433105.0,3.036,-29.899,-2.696,304.63,-8.78,558.66,97.28,-5.26
1,jab,200438105.0,4.247,-38.441,-5.028,306.46,-20.49,585.43,94.89,-5.38
1,jab,200443105.0,6.766,-50.929,-7.657,295.12,-35.91,619.57,92.47,-5.6
1,jab,200448105.0,12.914,-68.651,-12.426,272.87,-58.23,657.01,89.95,-5.99
1,jab,200453105.0,18.067,-82.174,-18.153,247.01,-91.16,660.79,87.31,-6.55
1,jab,200458105.0,17.042,-79.636,-26.245,233.9,-131.46,643.66,84.55,-7.3
1,jab,200463105.0,12.953,-69.877,-27.749,229.15,-185.37,633.35,81.75,-8.26
1,jab,200468105.0,13.321,-61.699,-24.818,221.4,-242.87,600.79,78.96,-9.51
1,jab,200473106.0,17.731,-53.357,-20.657,191.04,-288.72,512.87,76.09,-11.08
1,jab,200478106.0,25.704,-37.182,-16.951,147.32,-372.13,377.62,73.0,-13.32
1,jab,200483106.0,35.3,-17.348,-12.44,75.55,-476.34,206.59,69.4,-16.57
1,jab,200488106.0,40.318,-1.743,-2.308,21.59,-527.62,14.27,65.26,-20.54
1,jab,200493106.0,34.486,14.916,3.323,11.83,-466.59,-130.12,65.56,-23.74
1,jab,200498107.0,26.303,22.687,-3.069,-11.89,-316.46,-190.49,66.14,-25.79
1,jab,200503107.0,18.292,15.84,-13.278,-88.78,-125.3,-233.78,66.99,-26.72
1,jab,200508107.0,12.325,0.378,-22.951,-158.29,63.35,-274.7,68.45,-26.44
1,jab,200513107.0,10.879,-16.506,-28.759,-184.76,179.39,-312.5,63.17,-25.39
1,jab,200518107.0,10.721,-28.74,-28.759,-154.82,226.77,-342.01,58.45,-24.07
1,jab,200523107.0,9.419,-31.714,-24.464,-108.54,214.63,-351.65,54.2,-22.8
1,jab,200528107.0,8.356,-27.074,-18.431,-77.01,162.68,-338.11,50.25,-21.84
1,jab,200533107.0,8.413,-19.934,-11.463,-66.77,96.71,-309.7,46.52,-21.33
1,jab,200538107.0,8.863,-14.552,-5.052,-70.3,27.13,-278.66,43.06,-21.37
1,jab,200543107.0,9.098,-11.545,-2.342,-78.84,-33.29,-253.6,39.79,-21.85
1,jab,200548107.0,8.586,-11.128,-2.466,-91.71,-65.06,-234.51,36.49,-22.48
1,jab,200553107.0,7.398,-12.713,-4.19,-104.27,-63.11,-223.96,33.09,-22.91
1,jab,200558107.0,5.679,-14.466,-6.22,-115.73,-42.44,-225.61,29.59,-23.06
1,jab,200563107.0,3.922,-14.997,-8.696,-125.73,-17.44,-237.99,25.98,-22.94
1,jab,200568107.0,2.835,-14.456,-10.793,-135.85,9.82,-254.7,22.26,-22.61
1,jab,200573107.0,2.796,-13.412,-12.038,-145.61,40.61,-270.85,18.46,-22.14
1,jab,200578107.0,3.907,-12.594,-12.225,-152.5,71.04,-283.72,14.66,-21.6
1,jab,200583107.0,5.545,-12.186,-11.554,-154.7,97.74,-291.71,10.94,-21.05
1,jab,200588107.0,6.828,-11.909,-10.602,-154.76,116.59,-293.41,7.33,-20.52
1,jab,200593107.0,7.12,-11.55,-9.443,-152.87,124.15,-287.99,3.85,-20.01
1,jab,200598107.0,6.1,-10.822,-8.619,-148.41,119.02,-275.37,0.48,-19.51
1,jab,200603107.0,4.592,-9.754,-8.14,-142.5,102.74,-258.05,-2.83,-19.01
1,jab,200608107.0,3.266,-8.734,-7.968,-137.07,80.98,-241.34,-6.09,-18.54
1,jab,200613107.0,2.643,-7.819,-7.781,-132.8,57.32,-230.55,-9.32,-18.16
1,jab,200618107.0,2.466,-6.962,-7.58,-129.88,33.41,-226.22,-12.51,-17.9
1,jab,200623107.0,2.806,-5.861,-7.719,-128.17,10.91,-224.7,-15.75,-17.81
1,jab,200628107.0,3.539,-4.621,-8.265,-128.17,-5.3,-221.46,-19.08,-17.89
1,jab,200633107.0,4.664,-3.409,-8.705,-130.18,-9.82,-214.94,-22.51,-18.11
1,jab,200638107.0,6.024,-2.385,-9.146,-132.8,-0.73,-207.13,-26.01,-18.41
1,jab,200643107.0,7.274,-1.513,-9.203,-135.43,19.88,-199.39,-29.57,-18.7
1,jab,200648107.0,8.006,-0.804,-9.079,-138.05,46.34,-192.56,-33.15,-18.92
1,jab,200653107.0,7.819,-0.067,-8.624,-139.88,72.26,-185.37,-36.77,-19.04
1,jab,200658107.0,6.962,0.56,-8.198,-140.98,90.91,-176.71,-33.2,-19.02
1,jab,200663107.0,5.564,1.149,-7.719,-141.59,99.94,-166.77,-29.8,-18.85
1,jab,200668107.0,3.922,1.623,-7.274,-141.46,100.06,-155.98,-26.55,-18.54
1,jab,200673107.0,2.38,2.102,-7.154,-141.65,92.56,-146.46,-23.44,-18.07
1,jab,200678107.0,1.255,2.595,-7.183,-141.65,80.06,-138.96,-20.46,-17.5
1,jab,200683107.0,0.613,3.084,-7.144,-141.89,65.85,-134.39,-17.62,-16.92
1,jab,200688107.0,0.488,3.625,-7.025,-141.46,52.2,-132.13,-14.9,-16.4
1,jab,200693107.0,0.747,4.094,-7.001,-140.55,41.04,-130.67,-12.3,-15.97
1,jab,200698107.0,1.173,4.554,-6.704,-138.78,33.17,-128.78,-9.82,-15.66
1,jab,200703107.0,1.681,4.99,-6.546,-136.46,29.02,-125.06,-7.44,-15.43
1,jab,200708107.0,2.112,5.358,-6.412,-134.45,27.68,-119.94,-5.14,-15.27
1,jab,200713107.0,2.418,5.545,-6.048,-132.44,26.77,-114.76,-2.94,-15.16
1,jab,200718107.0,2.581,5.464,-5.459,-129.63,24.76,-111.4,-0.82,-15.11
1,jab,200723107.0,2.586,5.215,-4.836,-125.49,20.43,-109.82,1.24,-15.11
1,jab,200728107.0,2.37,4.956,-4.3,-119.82,13.72,-108.66,3.25,-15.13
1,jab,200733107.0,2.025,4.707,-3.883,-113.17,5.85,-106.95,5.22,-15.17
1,jab,200738107.0,1.724,4.702,-3.716,-106.4,-2.44,-103.6,7.16,-15.2
1,jab,200743107.0,1.547,4.812,-3.572,-99.76,-9.33,-99.82,9.06,-15.23
1,jab,200748107.0,1.556,5.009,-3.496,-93.29,-13.48,-96.04,10.92,-15.28
1,jab,200753107.0,1.772,5.1,-3.299,-86.83,-15.18,-92.74,12.73,-15.37
1,jab,200758107.0,2.04,5.239,-3.208,-80.18,-15.49,-89.7,14.52,-15.51
1,jab,200763107.0,2.217,5.507,-3.333,-73.66,-14.82,-86.83,16.29,-15.65
1,jab,200768107.0,2.145,5.856,-3.567,-67.74,-13.84,-83.11,18.06,-15.75
1,jab,200773107.0,1.891,6.172,-3.788,-61.95,-13.6,-78.9,19.82,-15.8
1,jab,200778107.0,1.312,6.445,-3.926,-55.61,-15.37,-74.51,21.58,-15.75
1,jab,200783107.0,0.541,6.761,-4.008,-49.02,-18.29,-69.7,23.32,-15.61
2,jab,205193120.0,4.037,8.394,-3.855,1.46,3.84,0.3,115.28,-23.58
2,jab,205198120.0,4.041,8.413,-3.859,1.71,4.57,0.43,115.28,-23.56
2,jab,205203120.0,4.041,8.428,-3.864,2.07,5.61,0.49,115.28,-23.53
2,jab,205208120.0,4.041,8.523,-3.812,2.26,7.2,0.55,115.26,-23.5
2,jab,205213120.0,4.032,8.59,-3.725,2.62,8.48,0.55,115.24,-23.45
2,jab,205218120.0,3.984,8.677,-3.692,2.62,10.37,0.67,115.21,-23.39
2,jab,205223120.0,3.998,8.753,-3.634,2.74,12.87,0.79,115.17,-23.31
2,jab,205228120.0,3.979,8.863,-3.558,3.05,15.55,0.91,115.12,-23.22
2,jab,205233120.0,4.022,8.988,-3.51,3.29,19.27,1.1,115.06,-23.12
2,jab,205238120.0,4.08,9.108,-3.381,3.78,23.48,1.04,114.98,-23.0
2,jab,205243120.0,4.142,9.227,-3.371,4.33,28.54,0.85,114.91,-22.85
2,jab,205248120.0,4.161,9.337,-3.309,5.12,34.51,0.49,114.82,-22.68
2,jab,205253120.0,4.132,9.428,-3.333,5.79,40.91,0.0,114.74,-22.48
2,jab,205258120.0,3.984,9.491,-3.227,6.95,47.93,-0.3,114.66,-22.23
2,jab,205263120.0,3.634,9.558,-3.194,8.78,54.57,-0.79,114.58,-21.91
2,jab,205268120.0,3.089,9.74,-3.112,10.3,60.37,-1.28,114.49,-21.51
2,jab,205273120.0,2.38,9.965,-2.825,12.62,65.12,-2.2,114.38,-21.02
2,jab,205278120.0,1.46,10.391,-2.361,16.1,68.6,-2.68,114.23,-20.42
2,jab,205283120.0,0.345,11.176,-1.963,20.55,70.67,-3.35,114.04,-19.7
2,jab,205288120.0,-0.857,12.254,-1.575,24.7,70.91,-4.02,113.83,-18.88
2,jab,205293120.0,-2.222,13.676,-1.159,28.96,69.39,-4.88,113.59,-17.98
2,jab,205298120.0,-3.73,15.433,-0.694,34.57,65.79,-6.59,113.34,-17.03
2,jab,205303120.0,-5.449,17.377,-0.235,40.85,61.22,-8.41,113.09,-16.04
2,jab,205308120.0,-7.441,19.728,0.096,47.62,55.79,-9.94,112.86,-15.03
2,jab,205313120.0,-9.783,22.324,0.402,54.88,49.57,-11.83,112.65,-14.01
2,jab,205318120.0,-12.287,25.302,0.809,62.62,43.66,-13.17,112.46,-13.0
2,jab,205323120.0,-15.174,28.52,1.681,72.32,37.99,-15.49,112.3,-12.0
2,jab,205328120.0,-18.512,32.216,2.356,84.02,32.87,-18.11,112.18,-11.0
2,jab,205333120.0,-21.984,36.191,2.667,92.44,24.82,-18.48,112.11,-10.03
2,jab,205338120.0,-24.689,39.978,2.576,96.59,11.77,-18.6,112.07,-9.14
2,jab,205343120.0,-26.264,42.306,2.04,93.84,-6.89,-23.41,112.03,-8.36
2,jab,205348120.0,-26.71,42.267,1.451,85.3,-35.06,-32.26,111.97,-7.72
2,jab,205353120.0,-26.14,40.175,0.072,76.46,-69.94,-40.3,111.9,-7.24
2,jab,205358120.0,-25.642,37.565,-1.221,68.29,-102.2,-44.57,111.83,-6.91
2,jab,205363120.0,-25.043,36.018,-2.121,64.63,-126.1,-40.37,111.78,-6.7
2,jab,205368120.0,-24.191,36.057,-2.16,65.61,-143.23,-30.79,111.74,-6.59
2,jab,205373120.0,-22.687,36.818,-1.365,68.9,-155.79,-18.66,111.68,-6.59
2,jab,205378120.0,-20.236,36.67,-0.292,71.59,-160.06,-3.48,111.61,-6.66
2,jab,205383120.0,-16.999,35.247,0.747,71.16,-153.11,14.39,111.5,-6.77
2,jab,205388120.0,-13.326,32.954,1.245,70.98,-137.8,31.71,111.37,-6.87
2,jab,205393120.0,-9.38,30.138,1.097,74.39,-112.62,53.41,111.27,-6.93
2,jab,205398120.0,-5.65,26.777,0.584,81.46,-75.85,83.17,111.22,-6.93
2,jab,205403120.0,-2.849,23.276,-0.345,93.17,-30.12,122.62,111.27,-6.8
2,jab,205408120.0,-1.365,19.848,-1.671,107.38,23.11,175.79,111.47,-6.47
2,jab,205413120.0,-1.379,16.659,-2.974,117.26,77.26,240.0,111.81,-5.87
2,jab,205418120.0,-2.753,13.762,-3.5,120.91,120.79,309.82,112.25,-4.94
2,jab,205423120.0,-4.903,10.712,-3.304,124.02,151.71,382.74,112.76,-3.63
2,jab,205428120.0,-6.843,6.517,-2.49,132.2,169.21,453.35,113.37,-1.84
2,jab,205433120.0,-7.896,1.681,-2.088,144.94,177.2,516.34,114.64,0.49
2,jab,205438120.0,-7.307,-4.104,-0.986,156.89,183.29,567.07,111.04,2.58
2,jab,205443120.0,-4.951,-11.416,0.924,168.11,185.85,600.61,107.94,3.91
2,jab,205448120.0,-1.159,-18.79,2.442,180.61,187.32,619.45,105.01,4.82
2,jab,205453120.0,1.044,-27.778,1.432,182.13,190.61,633.11,102.06,5.61
2,jab,205458120.0,1.59,-42.291,-0.709,160.43,179.27,678.23,98.99,6.34
2,jab,205463120.0,3.505,-65.299,-4.429,124.39,144.09,766.22,95.74,6.85
2,jab,205468120.0,11.971,-87.01,-9.064,87.01,70.98,828.78,92.33,6.91
2,jab,205473120.0,22.012,-92.9,-15.615,68.72,-7.07,778.35,88.83,6.47
2,jab,205478120.0,24.134,-79.2,-18.287,71.4,-52.8,666.77,85.35,5.75
2,jab,205483120.0,24.047,-64.591,-15.462,65.91,-117.44,586.46,81.89,4.67
2,jab,205488120.0,25.704,-54.64,-9.907,38.29,-181.4,543.9,78.44,3.19
2,jab,205493120.0,29.3,-41.76,-2.591,7.01,-207.87,465.61,75.03,1.4
2,jab,205498120.0,34.974,-25.714,3.467,-20.49,-221.65,299.27,71.78,-0.78
2,jab,205503120.0,40.366,-11.363,3.39,-39.09,-220.98,81.46,68.69,-3.32
2,jab,205508120.0,37.56,-4.884,-4.793,-41.65,-145.67,-104.33,64.42,-5.56
2,jab,205513120.0,27.931,-10.099,-13.929,-42.01,-2.26,-203.05,60.05,-6.63
2,jab,205518120.0,21.294,-21.481,-15.198,-41.65,115.49,-256.52,56.14,-6.71
2,jab,205523120.0,17.961,-28.553,-12.651,-25.0,137.8,-317.87,52.61,-6.5
2,jab,205528120.0,16.419,-30.272,-6.091,5.85,110.43,-365.0,49.56,-6.39
2,jab,205533120.0,15.682,-28.845,1.326,37.38,54.94,-389.51,47.01,-6.56
2,jab,205538120.0,14.303,-25.991,5.794,57.2,6.65,-390.06,44.8,-6.96
2,jab,205543120.0,12.526,-23.525,4.788,58.35,-12.13,-372.01,42.62,-7.43
2,jab,205548120.0,10.956,-22.237,-0.168,40.79,-1.46,-350.55,40.16,-7.81
2,jab,205553120.0,9.993,-22.113,-5.286,10.73,26.89,-344.02,37.34,-8.0
2,jab,205558120.0,8.667,-22.285,-8.432,-19.09,53.66,-356.22,34.28,-7.98
2,jab,205563120.0,6.144,-22.094,-9.189,-36.83,65.18,-372.93,31.17,-7.79
2,jab,205568120.0,3.338,-21.299,-8.528,-42.56,57.62,-379.76,28.1,-7.51
2,jab,205573120.0,1.753,-20.016,-7.618,-43.41,36.46,-376.46,25.11,-7.28
2,jab,205578120.0,1.638,-18.316,-7.063,-43.05,13.05,-371.59,22.17,-7.16
2,jab,205583120.0,2.581,-16.132,-7.049,-42.8,-3.48,-367.99,19.25,-7.2
2,jab,205588120.0,3.936,-13.767,-7.14,-44.7,-9.82,-364.76,16.29,-7.39
2,jab,205593120.0,5.119,-11.574,-7.307,-48.48,-7.93,-359.33,13.28,-7.69
2,jab,205598120.0,5.444,-9.586,-7.211,-53.78,-2.62,-350.0,10.22,-8.04
2,jab,205603120.0,4.889,-7.977,-7.034,-58.6,0.73,-335.37,7.1,-8.37
2,jab,205608120.0,3.725,-6.728,-6.91,-63.11,-0.24,-317.38,3.93,-8.63
2,jab,205613120.0,2.634,-5.612,-6.843,-67.2,-4.76,-300.3,0.71,-8.81
2,jab,205618120.0,2.011,-4.606,-6.996,-71.65,-11.34,-287.93,-2.59,-8.96
2,jab,205623120.0,2.035,-3.5,-6.996,-75.91,-17.74,-282.5,-5.98,-9.16
2,jab,205628120.0,2.653,-2.265,-6.814,-79.45,-21.46,-281.4,-9.48,-9.49
2,jab,205633120.0,3.39,-0.79,-6.565,-82.62,-21.89,-280.37,-13.16,-9.95
2,jab,205638120.0,3.965,0.862,-6.412,-85.79,-20.37,-274.82,-9.87,-10.48
2,jab,205643120.0,4.372,2.389,-6.12,-88.17,-15.61,-262.74,-6.93,-11.02
2,jab,205648120.0,4.659,3.62,-5.631,-89.02,-9.27,-246.83,-4.28,-11.54
2,jab,205653120.0,4.635,4.712,-5.325,-89.09,-4.27,-231.65,-1.86,-11.99
2,jab,205658120.0,4.003,5.622,-5.239,-88.54,-0.98,-217.13,0.4,-12.31
2,jab,205663120.0,2.95,6.311,-5.406,-87.5,0.55,-202.99,2.58,-12.45
2,jab,205668120.0,1.59,6.68,-5.349,-86.04,-0.43,-189.63,4.68,-12.41
2,jab,205673120.0,0.35,6.78,-5.258,-83.54,-6.04,-178.66,6.73,-12.24
2,jab,205678120.0,-0.613,6.732,-5.176,-80.79,-15.98,-171.52,8.75,-11.99
2,jab,205683120.0,-1.216,6.713,-5.167,-78.66,-28.72,-166.46,10.74,-11.73
2,jab,205688120.0,-1.274,6.814,-5.373,-77.5,-40.43,-162.38,12.71,-11.52
2,jab,205693120.0,-0.924,6.958,-5.425,-77.87,-49.82,-158.11,14.63,-11.42
2,jab,205698120.0,-0.254,7.197,-5.459,-78.72,-56.22,-153.41,16.5,-11.43
2,jab,205703120.0,0.479,7.393,-5.349,-79.88,-59.82,-147.62,18.3,-11.56
2,jab,205708120.0,1.168,7.446,-5.1,-80.37,-61.89,-141.04,20.02,-11.78
2,jab,205713120.0,1.532,7.274,-4.587,-78.96,-62.13,-131.83,21.68,-12.05
2,jab,205718120.0,1.446,7.144,-4.08,-75.06,-62.01,-122.74,23.28,-12.31
2,jab,205723120.0,1.149,7.235,-3.816,-69.45,-61.16,-112.56,24.83,-12.52
2,jab,205728120.0,0.781,7.652,-3.663,-63.66,-60.67,-102.26,26.33,-12.68
2,jab,205733120.0,0.493,8.203,-3.543,-57.5,-61.34,-93.84,27.79,-12.79
2,jab,205738120.0,0.259,8.792,-3.223,-51.16,-64.63,-87.62,29.18,-12.88
2,jab,205743120.0,0.105,9.38,-2.921,-43.41,-68.48,-82.56,30.53,-12.97
2,jab,205748120.0,0.048,9.816,-2.643,-35.67,-71.1,-76.77,31.85,-13.06
2,jab,205753120.0,0.11,10.199,-2.423,-28.48,-72.13,-70.0,33.14,-13.17
2,jab,205758120.0,0.268,10.424,-2.14,-22.01,-71.77,-63.17,34.4,-13.29
2,jab,205763121.0,0.397,10.616,-1.963,-16.95,-69.45,-56.52,35.64,-13.4
2,jab,205768121.0,0.555,10.851,-1.915,-13.17,-65.73,-49.57,36.86,-13.51
2,jab,205773121.0,0.661,11.052,-2.002,-11.04,-61.52,-42.32,38.08,-13.61
2,jab,205778121.0,0.804,11.133,-2.097,-9.82,-56.95,-34.57,39.28,-13.7
2,jab,205783121.0,0.958,11.171,-2.207,-9.51,-51.77,-26.16,40.47,-13.78
2,jab,205788121.0,1.12,10.965,-2.274,-9.09,-46.16,-17.07,41.65,-13.84
2,jab,205793121.0,1.283,10.673,-2.418,-8.29,-40.18,-8.23,42.83,-13.9
2,jab,205798121.0,1.393,10.4,-2.653,-8.23,-33.23,0.85,44.02,-13.93
2,jab,205803121.0,1.432,10.218,-2.935,-7.99,-24.63,10.55,45.22,-13.92
2,jab,205808121.0,1.389,10.156,-3.093,-7.8,-13.72,20.12,46.42,-13.86
2,jab,205813121.0,1.369,10.19,-3.127,-7.87,-1.77,28.66,47.59,-13.74
2,jab,205818121.0,1.312,10.262,-3.002,-8.05,9.21,35.98,48.73,-13.56
2,jab,205823121.0,1.144,10.42,-2.782,-8.35,18.54,41.71,49.81,-13.32
2,jab,205828121.0,0.891,10.659,-2.591,-8.96,25.98,46.89,50.85,-13.02
2,jab,205833121.0,0.632,10.889,-2.442,-10.61,30.67,51.65,51.83,-12.67
2,jab,205838121.0,0.345,11.042,-2.231,-12.62,32.87,55.0,52.76,-12.29
2,jab,205843121.0,0.172,11.2,-1.891,-14.39,32.32,57.01,53.63,-11.91
2,jab,205848121.0,0.067,11.411,-1.513,-15.67,29.33,57.13,54.43,-11.53
2,jab,205853121.0,-0.024,11.77,-1.427,-16.34,24.82,55.98,55.2,-11.18
2,jab,205858121.0,0.062,12.273,-1.403,-17.07,19.82,53.78,55.94,-10.86
2,jab,205863121.0,0.192,12.78,-1.561,-17.87,14.63,50.67,56.67,-10.59
2,jab,205868121.0,0.335,13.202,-1.676,-18.05,9.57,47.56,57.4,-10.36
2,jab,205873121.0,0.397,13.522,-2.002,-18.05,6.65,45.73,58.13,-10.15
3,jab,210003152.0,3.433,8.811,-3.539,-3.84,-1.46,3.78,111.26,-19.5
3,jab,210008152.0,3.4,8.815,-3.534,-3.6,-0.98,3.54,111.26,-19.51
3,jab,210013152.0,3.371,8.844,-3.5,-3.6,-0.55,3.35,111.25,-19.52
3,jab,210018152.0,3.333,8.835,-3.462,-3.6,-0.3,3.41,111.23,-19.51
3,jab,210023152.0,3.285,8.882,-3.481,-3.6,-0.12,3.78,111.22,-19.5
3,jab,210028152.0,3.275,8.868,-3.467,-3.41,0.0,3.84,111.2,-19.49
3,jab,210033152.0,3.194,8.892,-3.481,-3.11,0.18,3.78,111.19,-19.47
3,jab,210038152.0,3.127,8.849,-3.424,-2.87,0.67,4.09,111.18,-19.44
3,jab,210043152.0,3.06,8.882,-3.371,-2.68,0.91,4.27,111.16,-19.41
3,jab,210048152.0,3.002,8.926,-3.314,-2.38,1.04,4.45,111.13,-19.36
3,jab,210053152.0,2.95,8.945,-3.275,-1.95,1.16,4.63,111.1,-19.32
3,jab,210058152.0,2.863,9.069,-3.156,-0.85,1.28,4.63,111.06,-19.26
3,jab,210063152.0,2.787,9.237,-2.921,0.79,1.71,4.27,110.99,-19.18
3,jab,210068152.0,2.567,9.586,-2.638,3.35,3.78,4.21,110.89,-19.07
3,jab,210073152.0,2.274,10.065,-2.48,6.59,6.83,4.09,110.79,-18.9
3,jab,210078152.0,1.815,10.745,-2.217,10.67,11.22,3.96,110.66,-18.66
3,jab,210083152.0,0.958,11.593,-1.968,15.49,17.2,4.15,110.51,-18.29
3,jab,210088152.0,-0.383,12.546,-1.686,20.79,26.71,6.04,110.36,-17.76
3,jab,210093152.0,-2.447,13.594,-1.326,27.68,40.43,12.13,110.2,-17.01
3,jab,210098152.0,-5.464,14.868,-1.312,36.83,58.29,22.99,110.07,-15.98
3,jab,210103152.0,-9.534,16.448,-1.403,48.78,81.1,40.37,110.01,-14.66
3,jab,210108152.0,-14.638,18.335,-1.882,62.01,104.15,62.13,110.03,-13.09
3,jab,210113152.0,-20.475,20.801,-2.332,76.52,122.93,87.56,110.13,-11.34
3,jab,210118152.0,-26.102,24.287,-2.385,90.79,138.41,110.43,110.29,-9.49
3,jab,210123152.0,-30.804,28.031,-1.494,101.65,143.17,121.71,110.44,-7.65
3,jab,210128152.0,-33.715,32.619,-0.192,110.24,132.26,118.35,110.58,-5.93
3,jab,210133152.0,-34.342,36.852,0.766,110.18,99.94,100.06,110.68,-4.46
3,jab,210138152.0,-32.662,38.47,0.886,94.09,44.15,81.1,110.7,-3.35
3,jab,210143152.0,-29.597,36.928,0.273,70.49,-20.37,71.83,110.63,-2.61
3,jab,210148152.0,-26.887,34.151,-1.068,51.1,-76.95,75.98,110.5,-2.17
3,jab,210153152.0,-25.647,32.092,-1.887,43.72,-115.67,95.18,110.37,-1.92
3,jab,210158152.0,-25.833,31.536,-1.604,47.5,-135.3,124.51,110.25,-1.76
3,jab,210163152.0,-26.671,32.039,-0.201,55.73,-139.63,157.32,110.13,-1.61
3,jab,210168152.0,-26.916,31.781,2.15,60.79,-137.44,190.91,109.95,-1.45
3,jab,210173152.0,-25.996,29.913,4.736,61.59,-134.27,222.26,109.67,-1.27
3,jab,210178152.0,-24.153,26.944,6.934,61.22,-129.88,250.73,109.29,-1.06
3,jab,210183152.0,-21.548,23.497,8.423,64.63,-125.3,276.71,108.82,-0.83
3,jab,210188152.0,-18.392,20.212,9.562,76.04,-120.85,301.22,108.31,-0.62
3,jab,210193152.0,-14.782,17.846,9.16,92.74,-121.16,328.17,107.86,-0.47
3,jab,210198152.0,-10.918,15.567,7.02,110.61,-128.23,355.55,107.56,-0.44
3,jab,210203152.0,-7.685,13.159,3.735,130.73,-137.38,382.26,107.53,-0.52
3,jab,210208152.0,-5.047,9.716,-0.484,155.55,-140.79,413.72,108.0,-0.65
3,jab,210213152.0,-3.371,5.124,-4.602,182.74,-131.1,453.35,109.37,-0.76
3,jab,210218152.0,-2.303,-1.221,-6.852,207.93,-113.78,501.34,104.81,-0.93
3,jab,210223152.0,-2.318,-9.471,-6.44,235.43,-100.43,545.49,101.38,-1.18
3,jab,210228152.0,-2.71,-18.32,-5.962,264.09,-101.65,590.61,98.49,-1.49
3,jab,210233152.0,-1.657,-29.995,-5.124,286.52,-132.68,630.67,95.93,-2.05
3,jab,210238152.0,1.116,-48.746,-2.964,319.94,-213.66,652.38,93.71,-3.08
3,jab,210243152.0,4.717,-67.373,-3.998,343.41,-285.18,669.09,91.65,-4.5
3,jab,210248152.0,16.822,-104.67,-13.733,342.2,-416.95,688.96,89.54,-6.63
3,jab,210253152.0,27.902,-114.859,-26.676,314.51,-510.85,655.91,87.23,-9.27
3,jab,210258152.0,31.627,-94.853,-38.767,288.29,-555.49,616.89,84.65,-12.15
3,jab,210263152.0,35.262,-74.675,-43.019,280.55,-579.76,623.84,81.94,-15.19
3,jab,210268152.0,39.978,-59.213,-36.272,258.78,-561.4,580.91,79.14,-18.24
3,jab,210273152.0,39.969,-40.701,-24.794,186.46,-504.15,400.73,76.04,-21.14
3,jab,210278153.0,35.961,-23.205,-13.819,89.27,-475.0,163.29,72.54,-24.11
3,jab,210283153.0,32.523,-9.941,-6.996,11.52,-462.5,-48.84,68.64,-27.28
3,jab,210288153.0,30.397,0.704,-4.855,-35.18,-395.79,-197.01,70.53,-30.29
3,jab,210293154.0,30.263,6.359,-9.51,-91.83,-275.37,-296.16,71.6,-32.42
3,jab,210298154.0,30.88,3.974,-15.888,-150.49,-138.05,-376.22,72.75,-33.69
3,jab,210303154.0,30.813,-3.874,-20.14,-193.9,-7.56,-433.6,66.96,-34.18
3,jab,210308154.0,28.917,-12.713,-22.17,-212.68,120.67,-448.35,61.58,-33.88
3,jab,210313154.0,25.762,-19.91,-21.696,-218.72,213.96,-425.0,56.52,-32.98
3,jab,210318154.0,20.877,-24.794,-18.78,-215.61,257.56,-383.48,51.79,-31.73
3,jab,210323154.0,14.408,-27.356,-14.327,-202.44,260.98,-340.18,47.41,-30.32
3,jab,210328154.0,7.163,-27.409,-10.171,-187.44,234.02,-304.39,43.34,-28.84
3,jab,210333154.0,0.388,-26.006,-8.04,-176.46,186.59,-276.16,39.46,-27.37
3,jab,210338154.0,-4.295,-23.77,-7.25,-173.9,128.72,-261.28,35.68,-25.99
3,jab,210343154.0,-5.914,-21.059,-7.159,-174.27,73.11,-265.91,31.94,-24.82
3,jab,210348154.0,-5.009,-17.549,-7.068,-176.22,30.55,-288.72,28.2,-23.87
3,jab,210353154.0,-2.83,-13.465,-6.79,-178.9,2.99,-316.65,24.42,-23.17
3,jab,210358154.0,-0.249,-9.548,-6.704,-182.68,-12.8,-333.9,20.54,-22.74
3,jab,210363154.0,2.318,-6.258,-6.953,-190.0,-19.88,-334.21,16.44,-22.67
3,jab,210368154.0,4.458,-4.175,-7.575,-200.67,-17.38,-320.3,12.1,-22.84
3,jab,210373155.0,5.957,-3.63,-8.313,-211.1,-3.78,-300.85,7.7,-23.07
3,jab,210378155.0,6.263,-4.099,-9.333,-217.5,18.11,-282.74,3.35,-23.15
3,jab,210383156.0,5.425,-5.411,-9.634,-220.67,40.98,-268.48,-0.81,-23.01
3,jab,210388156.0,3.864,-6.838,-9.5,-218.96,59.76,-256.46,-4.75,-22.62
3,jab,210393156.0,2.016,-7.748,-9.266,-213.84,71.16,-245.0,-8.51,-22.01
3,jab,210398157.0,0.417,-7.877,-8.768,-207.13,73.41,-235.24,-12.11,-21.25
3,jab,210403158.0,-0.79,-7.044,-8.26,-200.18,68.66,-227.5,-15.64,-20.41
3,jab,210408158.0,-1.441,-5.449,-7.728,-193.78,59.15,-220.85,-19.18,-19.54
3,jab,210413158.0,-1.456,-3.352,-7.278,-189.76,47.68,-213.78,-22.83,-18.71
3,jab,210418158.0,-1.058,-1.235,-6.895,-187.68,37.13,-205.43,-26.69,-17.98
3,jab,210423159.0,-0.436,0.833,-6.642,-187.38,29.09,-195.06,-23.62,-17.4
3,jab,210428159.0,0.345,2.619,-6.632,-188.41,24.82,-181.22,-20.9,-16.99
3,jab,210433159.0,1.14,3.922,-6.68,-189.7,25.06,-165.37,-18.42,-16.69
3,jab,210438159.0,1.815,4.769,-6.536,-190.98,30.12,-149.27,-16.11,-16.46
3,jab,210443160.0,2.207,5.315,-6.378,-191.65,39.51,-134.15,-13.92,-16.24
3,jab,210448160.0,2.217,5.574,-6.148,-191.71,51.77,-119.51,-11.83,-15.96
3,jab,210453160.0,2.011,5.871,-6.057,-191.1,64.45,-106.16,-9.81,-15.59
3,jab,210458160.0,1.633,6.201,-5.995,-191.34,75.43,-94.7,-7.87,-15.12
3,jab,210463161.0,1.154,6.503,-5.78,-191.46,83.41,-85.98,-6.02,-14.56
3,jab,210468162.0,0.661,6.795,-5.349,-190.67,87.5,-79.57,-4.27,-13.93
3,jab,210473162.0,0.196,7.154,-5.004,-188.9,88.41,-74.45,-2.61,-13.25
3,jab,210478162.0,-0.134,7.456,-4.626,-187.38,86.22,-69.82,-1.04,-12.54
3,jab,210483162.0,-0.297,7.633,-4.204,-185.06,81.83,-65.43,0.45,-11.85
3,jab,210488162.0,-0.383,7.623,-3.85,-181.95,76.22,-61.46,1.89,-11.19
3,jab,210493162.0,-0.417,7.628,-3.577,-178.6,69.94,-57.2,3.28,-10.57
3,jab,210498162.0,-0.493,7.566,-3.338,-175.06,63.54,-52.93,4.63,-9.97
3,jab,210503162.0,-0.579,7.427,-2.978,-171.04,57.5,-47.8,5.94,-9.41
3,jab,210508162.0,-0.68,7.384,-2.739,-165.85,51.83,-42.8,7.21,-8.87
3,jab,210513162.0,-0.661,7.628,-2.662,-160.61,45.55,-38.48,8.47,-8.38
3,jab,210518162.0,-0.589,7.934,-2.351,-154.39,38.66,-36.1,9.67,-7.94
3,jab,210523162.0,-0.474,8.255,-1.839,-146.52,30.91,-35.24,10.81,-7.56
3,jab,210528162.0,-0.388,8.6,-1.432,-137.68,23.48,-35.12,11.91,-7.25
3,jab,210533162.0,-0.22,9.069,-1.211,-129.27,16.95,-34.39,12.99,-6.99
3,jab,210538162.0,0.144,9.448,-0.876,-121.46,11.89,-33.29,14.04,-6.81
3,jab,210543162.0,0.479,9.768,-0.512,-113.11,8.84,-32.13,15.07,-6.69
3,jab,210548162.0,0.781,10.123,-0.22,-104.27,7.68,-30.49,16.08,-6.6
3,jab,210553162.0,0.967,10.506,-0.091,-95.3,9.02,-28.29,17.1,-6.53
3,jab,210558162.0,1.073,10.75,0.072,-87.26,11.83,-25.61,18.12,-6.46
3,jab,210563162.0,1.149,10.822,0.177,-79.15,15.24,-23.29,19.15,-6.37
3,jab,210568162.0,1.039,10.769,0.378,-71.34,18.78,-21.22,20.18,-6.26
3,jab,210573162.0,0.69,10.645,0.618,-62.93,22.01,-18.41,21.2,-6.11
3,jab,210578162.0,0.235,10.568,0.498,-55.3,25.0,-14.63,22.25,-5.89
3,jab,210583162.0,-0.129,10.501,0.225,-48.96,27.07,-10.37,23.34,-5.62
3,jab,210588162.0,-0.464,10.262,0.105,-42.5,28.41,-6.4,24.46,-5.32
3,jab,210593162.0,-0.723,10.161,0.014,-35.49,28.78,-4.09,25.59,-4.99
3,jab,210598162.0,-0.943,10.357,-0.048,-29.09,28.17,-1.28,26.74,-4.65
3,jab,210603162.0,-1.049,10.683,-0.072,-23.23,26.89,1.77,27.9,-4.31
3,jab,210608162.0,-1.12,11.181,-0.12,-17.5,25.67,5.79,29.07,-3.98
3,jab,210613162.0,-1.168,11.784,0.034,-12.74,25.79,10.61,30.22,-3.66
3,jab,210618162.0,-1.307,12.368,0.038,-8.17,27.38,16.22,31.38,-3.34
3,jab,210623162.0,-1.398,12.866,0.005,-5.0,30.85,22.13,32.52,-2.99
3,jab,210628162.0,-1.489,13.077,0.244,-2.01,35.06,27.13,33.64,-2.63
4,jab,214893177.0,1.973,8.815,-3.745,13.29,1.04,-0.91,113.16,-18.89
4,jab,214898177.0,1.676,8.935,-3.735,16.59,2.07,-1.52,113.23,-18.7
4,jab,214903177.0,1.264,9.218,-3.61,20.79,5.0,-1.71,113.29,-18.45
4,jab,214908177.0,0.79,9.716,-3.414,25.91,9.76,-1.71,113.34,-18.12
4,jab,214913177.0,0.201,10.444,-2.998,31.89,16.71,-1.89,113.35,-17.69
4,jab,214918177.0,-0.503,11.492,-2.361,39.09,26.04,-2.62,113.31,-17.16
4,jab,214923177.0,-1.647,12.857,-1.609,46.77,37.32,-2.56,113.21,-16.49
4,jab,214928177.0,-3.548,14.585,-0.479,57.5,52.26,-1.16,113.07,-15.63
4,jab,214933177.0,-6.656,17.147,0.311,70.0,67.99,3.84,112.93,-14.56
4,jab,214938177.0,-10.956,20.121,1.566,83.41,78.72,12.8,112.79,-13.32
4,jab,214943177.0,-15.984,23.554,3.39,102.99,86.4,25.61,112.68,-11.95
4,jab,214948177.0,-21.735,28.098,4.712,123.29,90.73,38.11,112.64,-10.52
4,jab,214953177.0,-27.739,33.897,5.746,139.76,85.43,44.88,112.68,-9.11
4,jab,214958177.0,-33.797,41.017,6.191,151.04,65.18,44.02,112.79,-7.83
4,jab,214963177.0,-38.518,47.525,5.679,150.91,25.18,37.68,112.94,-6.77
4,jab,214968177.0,-40.223,49.627,4.659,133.84,-36.22,30.06,113.03,-6.03
4,jab,214973177.0,-38.561,46.232,2.744,102.01,-114.63,16.1,113.0,-5.68
4,jab,214978177.0,-35.554,41.3,0.512,69.7,-189.51,1.16,112.87,-5.68
4,jab,214983177.0,-32.346,38.029,-1.154,48.54,-245.73,-3.78,112.68,-5.96
4,jab,214988177.0,-28.932,36.971,-1.255,41.77,-283.05,3.29,112.47,-6.47
4,jab,214993177.0,-25.498,37.163,0.0,44.51,-306.1,20.3,112.24,-7.15
4,jab,214998177.0,-22.482,36.957,1.963,50.18,-313.78,45.79,111.98,-7.92
4,jab,215003177.0,-20.083,35.549,4.243,52.26,-306.28,77.32,111.66,-8.68
4,jab,215008177.0,-18.311,32.944,6.014,52.07,-285.24,111.83,111.28,-9.33
4,jab,215013177.0,-16.831,29.19,7.159,54.15,-256.95,149.02,110.84,-9.82
4,jab,215018177.0,-15.275,25.048,7.484,61.95,-225.91,187.74,110.39,-10.12
4,jab,215023177.0,-13.556,20.748,7.053,78.05,-199.63,227.2,109.99,-10.26
4,jab,215028177.0,-11.736,16.884,5.478,97.5,-184.27,267.99,109.71,-10.29
4,jab,215033177.0,-9.591,12.603,2.619,119.76,-179.21,309.82,109.67,-10.23
4,jab,215038177.0,-7.551,7.977,-1.523,145.91,-177.93,353.05,110.21,-10.04
4,jab,215043177.0,-5.856,3.472,-5.918,173.72,-167.93,402.8,111.85,-9.85
4,jab,215048177.0,-3.831,-2.294,-8.207,200.61,-147.93,459.27,107.31,-9.89
4,jab,215053177.0,-1.671,-9.491,-7.968,232.5,-123.78,513.11,103.7,-10.15
4,jab,215058177.0,1.293,-19.225,-4.721,271.89,-101.34,557.74,100.88,-10.52
4,jab,215063177.0,4.161,-30.531,0.053,319.02,-83.6,586.77,98.63,-10.87
4,jab,215068177.0,6.661,-44.609,5.033,375.55,-71.22,599.33,96.82,-11.17
4,jab,215073177.0,9.404,-61.703,5.234,427.07,-58.84,622.5,95.28,-11.41
4,jab,215078177.0,18.56,-90.577,0.618,434.27,-46.16,681.71,93.71,-11.64
4,jab,215083177.0,42.32,-118.839,-16.084,407.26,-9.51,752.32,91.87,-11.84
4,jab,215088177.0,57.068,-118.69,-32.623,375.3,87.2,722.07,89.77,-11.67
4,jab,215093177.0,47.204,-91.171,-43.402,390.67,203.48,629.82,87.58,-10.95
4,jab,215098177.0,41.266,-68.431,-38.599,397.99,246.28,580.85,85.39,-10.07
4,jab,215103177.0,41.554,-53.003,-29.702,350.37,248.84,553.23,83.01,-9.34
4,jab,215108177.0,32.178,-27.792,-31.551,254.88,185.55,419.7,79.83,-8.99
4,jab,215113177.0,20.662,-2.543,-22.697,144.02,26.04,223.05,75.47,-9.53
4,jab,215118177.0,8.82,12.684,-8.203,111.65,-112.87,45.67,76.96,-10.5
4,jab,215123177.0,-1.331,15.395,5.171,88.11,-204.02,-105.67,77.28,-11.19
4,jab,215128177.0,-7.848,8.073,8.648,46.65,-236.46,-222.99,76.83,-11.46
4,jab,215133177.0,-9.634,-0.924,0.962,-27.93,-239.76,-321.59,74.28,-10.76
4,jab,215138177.0,-4.942,-8.744,-9.481,-120.61,-248.17,-427.56,69.45,-11.34
4,jab,215143177.0,4.568,-13.987,-16.027,-185.79,-265.0,-526.4,64.38,-12.66
4,jab,215148177.0,16.357,-16.395,-21.835,-205.12,-281.83,-584.21,59.22,-14.4
4,jab,215153177.0,24.852,-15.481,-24.234,-200.73,-256.71,-572.74,54.1,-16.19
4,jab,215158177.0,29.281,-13.858,-24.344,-180.18,-210.06,-495.18,49.13,-17.82
4,jab,215163177.0,29.76,-12.412,-23.348,-169.63,-154.02,-392.07,44.28,-19.18
4,jab,215168177.0,26.284,-11.674,-22.132,-182.07,-79.94,-301.71,39.46,-20.12
4,jab,215173177.0,20.02,-12.838,-18.996,-207.13,8.41,-230.85,34.73,-20.5
4,jab,215178177.0,13.398,-15.581,-15.811,-227.74,86.77,-185.67,30.22,-20.29
4,jab,215183177.0,7.398,-18.354,-13.273,-234.51,136.28,-173.05,25.94,-19.58
4,jab,215188177.0,2.418,-20.193,-11.411,-224.76,156.59,-185.55,21.93,-18.54
4,jab,215193177.0,-1.456,-20.006,-10.357,-211.59,155.79,-209.94,18.11,-17.33
4,jab,215198177.0,-3.716,-18.138,-9.874,-202.87,142.8,-234.02,14.38,-16.08
4,jab,215203177.0,-3.926,-15.265,-10.175,-197.93,125.79,-253.17,10.65,-14.9
4,jab,215208177.0,-2.308,-12.105,-11.181,-195.18,111.52,-266.34,6.83,-13.89
4,jab,215213177.0,0.077,-9.007,-11.727,-196.71,102.56,-274.15,2.88,-13.12
4,jab,215218177.0,2.093,-6.756,-11.439,-200.73,97.87,-275.43,-1.15,-12.56
4,jab,215223177.0,3.175,-5.54,-10.951,-204.94,93.96,-270.3,-5.2,-12.13
4,jab,215228177.0,3.361,-5.387,-10.439,-205.85,90.0,-259.51,-9.15,-11.77
4,jab,215233177.0,2.978,-5.732,-9.969,-201.95,85.49,-245.06,-12.96,-11.41
4,jab,215238177.0,2.298,-6.139,-9.51,-194.51,79.76,-230.37,-16.6,-11.02
4,jab,215243177.0,1.595,-6.12,-8.964,-186.52,71.34,-218.84,-20.1,-10.61
4,jab,215248177.0,0.862,-5.612,-8.375,-178.48,59.39,-211.52,-23.49,-10.21
4,jab,215253177.0,0.249,-4.635,-7.714,-170.79,44.63,-206.95,-26.84,-9.82
4,jab,215258177.0,0.014,-3.357,-7.015,-164.27,28.17,-203.6,-30.2,-9.49
4,jab,215263178.0,0.192,-1.93,-6.761,-160.3,11.1,-201.28,-33.66,-9.27
4,jab,215268178.0,0.876,-0.709,-6.383,-158.29,-2.87,-200.18,-37.23,-9.26
4,jab,215273178.0,1.767,0.283,-5.981,-156.52,-12.38,-199.33,-33.71,-9.46
4,jab,215278178.0,2.466,1.207,-5.497,-153.9,-16.83,-196.89,-30.44,-9.83
4,jab,215283178.0,2.772,2.121,-5.061,-151.22,-16.28,-191.16,-27.42,-10.25
4,jab,215288178.0,2.796,3.089,-4.865,-148.96,-12.13,-181.65,-24.65,-10.62
4,jab,215293178.0,2.581,3.965,-4.731,-147.62,-5.85,-170.0,-22.08,-10.89
4,jab,215298179.0,2.327,4.755,-4.592,-146.4,2.13,-158.54,-19.68,-11.05
4,jab,215303180.0,2.164,5.31,-4.238,-144.21,12.2,-148.72,-17.42,-11.12
4,jab,215308180.0,2.078,5.689,-3.903,-141.4,22.68,-141.34,-15.28,-11.12
4,jab,215313180.0,2.054,5.962,-3.467,-137.56,32.74,-134.88,-13.24,-11.07
4,jab,215318180.0,2.021,6.206,-3.117,-133.66,41.71,-127.87,-11.3,-10.97
4,jab,215323180.0,1.858,6.421,-2.811,-129.21,48.72,-119.82,-9.43,-10.81
4,jab,215328181.0,1.599,6.594,-2.308,-123.72,54.51,-110.98,-7.66,-10.58
4,jab,215333181.0,1.24,6.661,-1.844,-116.77,57.99,-102.01,-5.97,-10.29
4,jab,215338181.0,0.824,6.78,-1.604,-108.96,58.96,-93.84,-4.32,-9.93
4,jab,215343181.0,0.33,6.819,-1.532,-101.22,56.28,-87.44,-2.68,-9.51
4,jab,215348182.0,-0.196,6.838,-1.585,-93.11,50.12,-82.8,-1.02,-9.04
4,jab,215353182.0,-0.838,6.814,-1.599,-84.33,40.55,-79.39,0.65,-8.53
4,jab,215358182.0,-1.465,6.795,-1.58,-74.7,28.48,-76.4,2.33,-7.98
4,jab,215363183.0,-2.006,6.847,-1.652,-65.0,15.55,-73.84,4.04,-7.43
4,jab,215368184.0,-2.447,7.049,-1.705,-55.85,2.99,-71.16,5.76,-6.89
4,jab,215373184.0,-2.648,7.499,-1.705,-46.77,-7.87,-69.02,7.47,-6.41
4,jab,215378184.0,-2.605,8.174,-1.618,-38.35,-16.16,-67.13,9.16,-6.01
4,jab,215383184.0,-2.365,8.964,-1.302,-30.55,-22.13,-65.79,10.79,-5.71
4,jab,215388184.0,-1.978,9.95,-0.977,-22.8,-26.1,-65.12,12.37,-5.5
4,jab,215393184.0,-1.523,11.08,-0.594,-15.85,-27.87,-64.39,13.91,-5.37
4,jab,215398184.0,-1.178,12.22,-0.359,-10.12,-27.8,-63.05,15.42,-5.29
4,jab,215403184.0,-0.934,13.168,-0.11,-5.67,-25.61,-60.91,16.89,-5.23
4,jab,215408184.0,-0.824,13.896,-0.038,-1.95,-21.28,-56.95,18.34,-5.16
4,jab,215413184.0,-0.781,14.36,-0.115,0.55,-15.61,-51.1,19.79,-5.07
4,jab,215418184.0,-0.785,14.475,-0.34,2.2,-8.96,-43.78,21.23,-4.95
4,jab,215423184.0,-0.742,14.298,-0.747,3.54,-1.28,-35.43,22.68,-4.8
4,jab,215428184.0,-0.757,13.906,-1.178,4.63,6.95,-26.65,24.15,-4.61
4,jab,215433184.0,-0.843,13.211,-1.48,6.77,15.24,-17.62,25.63,-4.37
4,jab,215438184.0,-1.015,12.531,-1.781,10.12,23.84,-8.66,27.13,-4.07
4,jab,215443184.0,-1.235,12.081,-2.035,13.48,31.83,-0.12,28.64,-3.72
4,jab,215448184.0,-1.475,11.851,-2.097,17.38,39.27,7.93,30.15,-3.31
4,jab,215453184.0,-1.796,12.134,-2.006,20.85,46.1,14.45,31.64,-2.85
4,jab,215458184.0,-2.193,13.168,-1.767,23.35,52.56,21.1,33.08,-2.35
4,jab,215463184.0,-2.466,14.03,-1.499,24.15,56.04,24.63,34.45,-1.83
4,jab,215468184.0,-2.6,15.222,-1.111,23.9,60.24,28.35,35.77,-1.31
4,jab,215473184.0,-2.777,16.204,-0.733,22.13,64.09,31.71,37.01,-0.77
4,jab,215478184.0,-2.887,16.817,-0.33,18.66,67.87,34.88,38.18,-0.23
4,jab,215483184.0,-3.06,17.004,0.086,14.63,71.71,38.29,39.29,0.33
4,jab,215488184.0,-3.256,16.75,0.302,10.06,75.18,41.71,40.33,0.91
5,jab,219638198.0,2.662,8.873,-3.515,1.95,2.93,-2.99,112.72,-18.99
5,jab,219643198.0,2.581,8.93,-3.419,2.44,4.09,-2.68,112.69,-18.9
5,jab,219648198.0,2.423,9.012,-3.395,2.8,5.49,-2.56,112.67,-18.77
5,jab,219653198.0,2.198,9.175,-3.371,3.6,7.68,-2.62,112.63,-18.61
5,jab,219658198.0,1.992,9.342,-3.371,4.39,9.57,-2.38,112.6,-18.42
5,jab,219663198.0,1.666,9.51,-3.194,5.73,12.44,-2.13,112.55,-18.18
5,jab,219668198.0,1.298,9.735,-3.127,7.32,17.2,-0.85,112.49,-17.88
5,jab,219673198.0,0.876,10.142,-2.959,8.48,24.15,1.22,112.41,-17.5
5,jab,219678198.0,0.244,10.812,-2.72,10.18,33.17,3.78,112.29,-17.01
5,jab,219683198.0,-0.656,11.665,-2.174,12.32,42.26,7.2,112.12,-16.4
5,jab,219688198.0,-1.896,12.651,-1.614,15.43,48.96,11.46,111.89,-15.66
5,jab,219693198.0,-3.639,13.776,-1.183,20.43,54.7,17.01,111.65,-14.79
5,jab,219698198.0,-5.966,15.146,-0.919,25.91,60.67,24.76,111.42,-13.76
5,jab,219703198.0,-8.863,16.707,-0.771,30.73,64.82,34.21,111.19,-12.61
5,jab,219708198.0,-12.244,18.349,-0.579,36.71,66.1,44.94,110.98,-11.36
5,jab,219713198.0,-16.046,20.418,-0.412,43.35,63.11,55.43,110.8,-10.06
5,jab,219718198.0,-19.872,22.716,-0.163,49.57,55.12,64.45,110.64,-8.77
5,jab,219723198.0,-23.683,25.326,0.388,57.2,40.37,68.48,110.49,-7.53
5,jab,219728198.0,-27.27,28.414,0.977,63.78,17.44,69.82,110.35,-6.42
5,jab,219733198.0,-29.693,31.728,1.341,67.74,-12.87,69.02,110.23,-5.49
5,jab,219738198.0,-30.77,34.793,1.609,66.71,-48.9,64.45,110.1,-4.79
5,jab,219743198.0,-30.148,37.268,1.657,59.94,-87.2,57.01,109.94,-4.35
5,jab,219748198.0,-28.252,38.81,1.422,49.57,-122.07,50.18,109.74,-4.14
5,jab,219753198.0,-25.709,38.915,1.365,37.74,-147.74,50.98,109.49,-4.11
5,jab,219758198.0,-22.879,37.565,1.422,28.54,-158.48,62.44,109.2,-4.18
5,jab,219763198.0,-20.044,35.578,1.829,24.39,-152.56,80.67,108.87,-4.25
5,jab,219768198.0,-17.607,33.849,2.476,24.09,-134.39,101.52,108.53,-4.28
5,jab,219773198.0,-16.07,32.748,3.414,25.55,-109.02,120.79,108.16,-4.21
5,jab,219778198.0,-14.48,31.527,4.65,27.01,-84.76,142.68,107.77,-4.05
5,jab,219783198.0,-12.752,30.157,5.411,30.12,-58.66,165.98,107.35,-3.8
5,jab,219788198.0,-10.678,28.285,6.483,35.79,-30.12,192.38,106.92,-3.47
5,jab,219793198.0,-8.135,26.379,7.154,44.76,-0.85,221.22,106.5,-3.08
5,jab,219798198.0,-5.492,24.339,7.599,56.1,30.3,252.44,106.1,-2.62
5,jab,219803198.0,-2.772,21.806,7.566,69.02,60.79,286.89,105.73,-2.13
5,jab,219808198.0,-0.503,18.953,7.307,84.21,90.3,322.2,105.41,-1.62
5,jab,219813198.0,1.068,15.395,6.608,101.46,118.17,361.77,105.13,-1.08
5,jab,219818198.0,1.863,11.004,6.124,121.65,140.3,407.2,104.85,-0.54
5,jab,219823198.0,1.738,5.646,5.933,140.55,145.79,457.01,104.31,-0.06
5,jab,219828198.0,0.761,-0.675,3.697,155.0,127.07,511.65,102.78,0.34
5,jab,219833198.0,-0.359,-8.562,-0.939,166.16,85.18,573.29,99.61,0.8
5,jab,219838198.0,-1.743,-18.976,-4.132,185.37,31.1,638.9,96.48,1.04
5,jab,219843198.0,-0.948,-33.184,-6.804,218.84,-29.27,701.04,93.59,0.9
5,jab,219848198.0,0.105,-47.525,-9.931,244.57,-86.4,743.84,90.88,0.46
5,jab,219853198.0,3.687,-67.895,-12.627,242.26,-141.65,769.39,88.24,-0.3
5,jab,219858198.0,11.722,-97.056,-13.91,210.18,-198.05,781.4,85.54,-1.41
5,jab,219863198.0,26.911,-117.364,-18.953,173.17,-241.89,756.89,82.7,-2.82
5,jab,219868198.0,37.34,-105.532,-20.638,179.7,-211.28,661.71,79.9,-4.18
5,jab,219873198.0,40.045,-83.835,-13.704,215.61,-173.41,546.46,77.37,-5.45
5,jab,219878198.0,40.405,-66.147,-8.686,207.87,-162.8,474.39,74.9,-6.76
5,jab,219883198.0,42.315,-46.625,-11.578,186.16,-140.18,393.35,72.23,-8.14
5,jab,219888198.0,42.89,-20.676,-18.311,145.43,-140.3,271.77,68.87,-9.81
5,jab,219893198.0,38.7,4.032,-19.134,94.88,-111.83,130.85,71.32,-11.43
5,jab,219898198.0,29.023,16.056,-15.912,35.43,-48.41,-27.74,72.76,-12.48
5,jab,219903198.0,14.557,16.563,-14.121,-10.98,46.52,-162.26,73.86,-12.68
5,jab,219908198.0,6.747,4.966,-11.478,-57.93,116.28,-240.67,75.23,-12.42
5,jab,219913198.0,8.605,-10.693,-10.08,-90.91,120.12,-320.91,70.61,-12.19
5,jab,219918198.0,11.631,-21.84,-10.353,-96.83,74.82,-408.48,66.42,-12.09
5,jab,219923198.0,10.951,-27.193,-9.232,-80.37,32.32,-447.2,62.52,-12.11
5,jab,219928198.0,9.275,-27.371,-6.742,-58.78,-10.0,-422.74,58.91,-12.28
5,jab,219933198.0,9.026,-24.526,-4.879,-43.41,-48.66,-374.76,55.49,-12.67
5,jab,219938198.0,9.62,-21.026,-4.266,-41.46,-69.88,-336.89,52.15,-13.24
5,jab,219943198.0,10.19,-18.167,-4.951,-49.33,-66.4,-317.01,48.76,-13.87
5,jab,219948198.0,10.501,-16.19,-6.163,-68.41,-40.73,-312.56,45.23,-14.42
5,jab,219953198.0,10.281,-14.935,-7.379,-92.87,0.24,-320.91,41.55,-14.76
5,jab,219958198.0,9.433,-13.982,-8.485,-115.37,47.32,-333.6,37.73,-14.83
5,jab,219963198.0,8.174,-13.135,-9.476,-131.95,90.98,-341.77,33.81,-14.63
5,jab,219968198.0,6.804,-12.541,-10.046,-141.22,125.79,-342.07,29.87,-14.18
5,jab,219973198.0,5.559,-12.349,-10.424,-145.37,151.1,-336.04,25.95,-13.53
5,jab,219978199.0,4.506,-12.55,-10.271,-146.1,168.41,-329.02,22.13,-12.75
5,jab,219983199.0,3.381,-13.01,-9.984,-142.5,177.8,-324.15,18.44,-11.85
5,jab,219988199.0,2.107,-13.111,-9.333,-135.3,178.48,-322.07,14.9,-10.89
5,jab,219993199.0,0.79,-12.67,-8.638,-126.1,170.55,-320.73,11.5,-9.9
5,jab,219998200.0,-0.34,-11.712,-7.681,-116.89,153.48,-317.8,8.23,-8.92
5,jab,220003200.0,-0.996,-10.439,-6.838,-109.51,128.17,-314.33,5.07,-8.02
5,jab,220008200.0,-1.202,-8.892,-6.072,-103.29,98.35,-310.61,1.97,-7.25
5,jab,220013200.0,-1.068,-7.183,-5.684,-99.39,68.41,-305.91,-1.12,-6.64
5,jab,220018200.0,-0.517,-5.416,-5.564,-98.54,40.37,-300.73,-4.3,-6.23
5,jab,220023200.0,0.263,-3.864,-5.44,-99.33,16.46,-294.94,-7.59,-6.07
5,jab,220028200.0,1.197,-2.447,-5.329,-100.79,-1.59,-288.05,-11.04,-6.19
5,jab,220033200.0,2.155,-1.168,-5.286,-102.2,-15.49,-280.43,-14.67,-6.58
5,jab,220038200.0,3.146,-0.201,-5.095,-104.21,-25.0,-272.62,-18.44,-7.2
5,jab,220043200.0,3.745,0.627,-4.889,-104.21,-30.37,-263.96,-15.13,-7.95
5,jab,220048200.0,3.893,1.413,-4.592,-103.11,-32.13,-253.84,-12.07,-8.73
5,jab,220053200.0,3.486,2.452,-4.463,-101.04,-30.91,-238.78,-9.3,-9.39
5,jab,220058200.0,2.916,3.323,-4.468,-100.12,-29.7,-225.61,-6.74,-9.9
5,jab,220063200.0,2.155,4.128,-4.377,-99.39,-31.28,-214.27,-4.36,-10.25
5,jab,220068200.0,1.36,4.851,-4.185,-97.62,-35.85,-206.1,-2.14,-10.46
5,jab,220073200.0,0.503,5.454,-3.912,-94.39,-42.44,-199.76,-0.04,-10.55
5,jab,220078200.0,-0.292,5.995,-3.773,-90.91,-50.12,-194.02,1.96,-10.53
5,jab,220083200.0,-0.871,6.402,-3.601,-87.2,-57.26,-187.99,3.88,-10.47
5,jab,220088200.0,-1.13,6.694,-3.414,-83.72,-64.45,-181.16,5.73,-10.4
5,jab,220093200.0,-1.02,6.914,-3.323,-80.55,-71.95,-174.15,7.53,-10.4
5,jab,220098200.0,-0.718,6.852,-3.045,-76.83,-79.51,-167.32,9.29,-10.47
5,jab,220103200.0,-0.383,6.651,-2.523,-71.59,-86.89,-160.67,10.97,-10.62
5,jab,220108200.0,-0.297,6.656,-2.059,-64.88,-92.99,-152.07,12.57,-10.82
5,jab,220113200.0,-0.378,7.111,-1.839,-58.41,-97.2,-141.16,14.12,-11.02
5,jab,220118201.0,-0.455,7.805,-1.518,-52.44,-101.16,-128.78,15.6,-11.23
5,jab,220123201.0,-0.479,8.576,-0.977,-46.46,-104.82,-117.44,17.0,-11.46
5,jab,220128201.0,-0.512,9.419,-0.402,-39.09,-107.2,-107.13,18.31,-11.69
5,jab,220133202.0,-0.685,10.434,0.077,-31.83,-107.99,-96.22,19.58,-11.91
5,jab,220138202.0,-0.761,11.43,0.354,-25.18,-106.83,-83.96,20.83,-12.12
5,jab,220143202.0,-0.709,12.378,0.407,-19.76,-102.74,-71.22,22.08,-12.31
5,jab,220148202.0,-0.512,13.168,0.517,-14.63,-95.79,-58.78,23.32,-12.49
5,jab,220153203.0,-0.201,13.829,0.555,-9.39,-86.83,-46.83,24.56,-12.65
5,jab,220158204.0,0.124,14.298,0.464,-4.21,-75.85,-35.85,25.81,-12.78
5,jab,220163205.0,0.421,14.585,0.369,0.91,-63.35,-25.61,27.07,-12.87
5,jab,220168205.0,0.455,14.724,0.014,5.06,-50.67,-16.16,28.36,-12.89
5,jab,220173206.0,0.239,14.724,-0.517,8.11,-38.41,-7.2,29.67,-12.84
5,jab,220178206.0,-0.225,14.605,-1.111,9.76,-25.3,1.89,31.01,-12.69
5,jab,220183206.0,-0.785,14.399,-1.757,10.12,-12.13,10.24,32.38,-12.44
5,jab,220188206.0,-1.326,13.977,-2.116,10.49,-0.18,17.01,33.75,-12.08
5,jab,220193206.0,-1.93,13.527,-2.198,11.77,10.37,22.13,35.12,-11.63
5,jab,220198206.0,-2.523,13.259,-2.274,13.17,18.9,25.85,36.48,-11.09
5,jab,220203207.0,-3.122,13.221,-2.27,14.33,25.98,28.78,37.81,-10.48
5,jab,220208207.0,-3.759,13.57,-2.126,15.12,31.65,31.16,39.11,-9.81
5,jab,220213207.0,-4.185,14.083,-1.676,15.67,35.55,31.95,40.34,-9.11
5,jab,220218207.0,-4.597,14.724,-1.154,16.34,36.95,31.77,41.5,-8.4
5,jab,220223207.0,-5.095,15.4,-0.579,16.65,35.3,29.76,42.6,-7.69
5,jab,220228207.0,-5.497,15.945,-0.244,15.49,30.49,27.32,43.64,-7.01
5,jab,220233207.0,-5.88,16.395,0.067,13.96,23.78,26.16,44.63,-6.36
5,jab,220238207.0,-6.009,16.683,0.206,12.68,15.43,27.38,45.59,-5.76
5,jab,220243207.0,-5.842,16.822,0.215,11.4,4.63,30.73,46.52,-5.24
5,jab,220248207.0,-5.334,16.75,0.144,10.0,-8.66,35.18,47.42,-4.82
5,jab,220253207.0,-4.587,16.376,-0.086,8.96,-23.84,39.82,48.33,-4.53
5,jab,220258207.0,-3.764,15.768,-0.613,7.8,-35.67,43.11,49.24,-4.35
6,jab,224393232.0,3.108,9.103,-3.237,-1.77,4.27,-4.09,111.44,-18.21
6,jab,224398232.0,2.892,9.208,-3.338,-0.79,5.37,-4.63,111.41,-18.15
6,jab,224403232.0,2.61,9.385,-3.4,0.49,6.04,-5.12,111.38,-18.05
6,jab,224408232.0,2.241,9.553,-3.472,2.07,6.59,-5.67,111.36,-17.9
6,jab,224413232.0,1.618,9.759,-3.261,4.51,9.57,-5.85,111.33,-17.68
6,jab,224418232.0,0.819,10.046,-2.863,8.23,16.4,-4.27,111.26,-17.33
6,jab,224423232.0,-0.34,10.329,-1.978,13.96,26.77,-0.67,111.12,-16.82
6,jab,224428232.0,-2.179,10.918,-1.168,22.01,42.38,7.01,110.93,-16.05
6,jab,224433232.0,-4.966,11.957,-0.436,30.85,63.35,20.18,110.7,-14.97
6,jab,224438232.0,-8.777,13.642,0.311,40.67,86.59,39.02,110.46,-13.59
6,jab,224443232.0,-13.216,15.926,1.312,53.35,108.05,60.67,110.22,-12.0
6,jab,224448232.0,-17.889,19.383,2.911,70.0,128.17,80.3,109.99,-10.28
6,jab,224453233.0,-22.793,24.363,5.037,88.23,142.8,92.93,109.78,-8.52
6,jab,224458233.0,-27.596,30.981,6.421,101.1,145.06,98.29,109.65,-6.82
6,jab,224463233.0,-31.206,37.651,6.814,104.63,129.63,100.67,109.56,-5.27
6,jab,224468233.0,-32.58,40.855,6.455,94.33,95.18,105.67,109.46,-3.93
6,jab,224473233.0,-31.79,39.461,5.578,75.37,49.88,115.73,109.28,-2.83
6,jab,224478233.0,-30.737,34.97,3.701,51.04,9.76,124.27,109.02,-1.91
6,jab,224483233.0,-30.526,30.986,1.604,32.01,-17.99,134.27,108.74,-1.07
6,jab,224488233.0,-30.607,28.525,0.062,22.87,-35.49,147.68,108.47,-0.28
6,jab,224493233.0,-30.325,27.347,-0.311,21.83,-50.98,163.6,108.22,0.44
6,jab,224498233.0,-29.228,26.633,0.575,26.71,-69.82,181.16,107.96,1.04
6,jab,224503233.0,-27.222,25.647,1.848,32.68,-89.82,199.33,107.68,1.51
6,jab,224508233.0,-24.426,24.306,3.237,35.85,-105.85,217.99,107.35,1.86
6,jab,224513233.0,-21.189,22.893,4.324,37.74,-117.87,235.73,106.98,2.09
6,jab,224518233.0,-17.688,21.452,4.951,42.44,-126.83,253.23,106.58,2.2
6,jab,224523233.0,-14.231,19.671,5.205,52.99,-131.77,274.51,106.22,2.21
6,jab,224528233.0,-10.64,17.717,4.353,66.71,-132.32,301.46,105.94,2.12
6,jab,224533233.0,-7.116,15.414,2.619,82.87,-128.23,330.61,105.84,1.94
6,jab,224538233.0,-3.802,12.752,0.575,102.13,-115.49,362.56,105.97,1.67
6,jab,224543233.0,-1.24,9.352,-1.202,126.28,-87.26,400.98,106.41,1.36
6,jab,224548233.0,0.048,4.841,-1.551,155.3,-46.52,446.71,107.2,1.09
6,jab,224553233.0,-0.043,-0.326,-1.255,184.76,-1.95,495.43,102.66,1.1
6,jab,224558233.0,-0.699,-6.929,0.824,213.54,38.9,544.82,99.98,1.38
6,jab,224563233.0,0.024,-15.093,3.256,253.72,71.83,598.84,97.67,1.71
6,jab,224568233.0,3.251,-23.473,3.926,281.59,72.38,627.87,95.49,1.87
6,jab,224573233.0,6.397,-31.149,3.007,301.52,57.07,635.0,93.37,1.88
6,jab,224578233.0,10.592,-43.426,-1.911,320.73,21.4,644.09,91.22,1.67
6,jab,224583233.0,15.289,-60.501,-9.103,310.12,-12.87,677.56,88.94,1.3
6,jab,224588233.0,23.262,-87.101,-15.136,268.96,-75.67,714.82,86.49,0.61
6,jab,224593233.0,29.209,-102.362,-25.053,223.35,-189.82,720.43,83.77,-0.65
6,jab,224598233.0,26.944,-90.467,-35.755,205.3,-312.56,677.44,80.87,-2.47
6,jab,224603233.0,20.006,-70.988,-37.503,197.62,-425.61,603.29,77.87,-4.79
6,jab,224608233.0,16.903,-55.32,-29.851,165.43,-525.0,499.39,74.75,-7.57
6,jab,224613233.0,20.887,-39.734,-21.658,121.65,-598.66,328.9,71.48,-10.85
6,jab,224618233.0,29.166,-24.632,-12.536,76.04,-642.2,95.37,68.09,-14.71
6,jab,224623233.0,39.155,-9.524,-6.709,24.27,-616.95,-134.94,64.34,-18.9
6,jab,224628233.0,48.229,2.418,-8.059,-35.67,-494.09,-316.95,66.15,-22.55
6,jab,224633233.0,54.171,10.333,-15.203,-84.63,-276.1,-432.8,67.32,-24.88
6,jab,224638233.0,53.779,11.344,-22.884,-125.18,-19.45,-475.98,68.44,-25.77
6,jab,224643233.0,47.831,2.279,-24.541,-159.94,210.67,-441.1,69.78,-25.47
6,jab,224648233.0,39.428,-11.152,-23.248,-182.13,369.94,-367.68,64.4,-24.29
6,jab,224653233.0,29.037,-22.544,-19.182,-180.61,463.66,-303.11,59.62,-22.42
6,jab,224658233.0,18.028,-29.406,-14.585,-160.18,500.67,-266.77,55.32,-20.09
6,jab,224663233.0,7.005,-31.651,-10.587,-136.34,485.37,-256.46,51.37,-17.55
6,jab,224668233.0,-2.907,-31.484,-8.212,-117.07,424.76,-256.77,47.68,-15.01
6,jab,224673233.0,-9.855,-30.392,-6.728,-105.61,328.72,-267.01,44.16,-12.75
6,jab,224678233.0,-12.167,-27.596,-6.416,-95.61,220.3,-296.95,40.74,-10.95
6,jab,224683233.0,-10.922,-22.999,-6.642,-91.16,125.37,-342.99,37.36,-9.63
6,jab,224688233.0,-7.278,-17.257,-7.226,-92.2,51.83,-388.9,33.91,-8.76
6,jab,224693233.0,-2.916,-11.851,-7.326,-99.51,-4.63,-420.67,30.31,-8.37
6,jab,224698233.0,1.001,-7.408,-7.436,-112.32,-46.52,-429.94,26.45,-8.54
6,jab,224703234.0,4.219,-4.434,-8.083,-124.7,-70.55,-416.59,22.28,-9.2
6,jab,224708234.0,6.919,-3.021,-9.002,-137.44,-72.44,-387.5,17.94,-10.1
6,jab,224713234.0,9.184,-3.582,-9.515,-147.74,-52.68,-356.1,13.67,-11.0
6,jab,224718234.0,10.563,-5.444,-9.61,-154.7,-18.17,-331.77,9.62,-11.74
6,jab,224723234.0,10.597,-7.628,-9.194,-158.23,19.82,-317.07,5.85,-12.24
6,jab,224728234.0,9.232,-8.988,-8.581,-157.07,51.52,-306.52,2.29,-12.47
6,jab,224733235.0,6.929,-8.969,-7.963,-152.99,71.04,-295.18,-1.14,-12.48
6,jab,224738235.0,4.492,-7.858,-7.317,-148.23,77.32,-281.89,-4.5,-12.3
6,jab,224743236.0,2.38,-6.287,-6.565,-145.43,72.01,-269.27,-7.85,-12.0
6,jab,224748236.0,1.039,-4.697,-5.679,-144.51,58.17,-258.54,-11.21,-11.63
6,jab,224753237.0,0.326,-3.146,-5.104,-144.51,39.02,-250.24,-14.66,-11.27
6,jab,224758237.0,0.287,-1.762,-4.583,-145.3,18.11,-243.72,-18.26,-11.02
6,jab,224763237.0,0.824,-0.584,-4.185,-145.91,-0.06,-236.22,-22.05,-11.02
6,jab,224768237.0,1.791,0.397,-4.113,-146.77,-11.95,-226.59,-18.84,-11.33
6,jab,224773237.0,2.954,1.231,-4.094,-148.9,-15.3,-214.45,-15.92,-11.87
6,jab,224778237.0,4.166,1.805,-3.773,-150.98,-10.67,-200.85,-13.26,-12.58
6,jab,224783238.0,5.171,2.112,-3.299,-152.07,0.12,-187.07,-10.79,-13.39
6,jab,224788238.0,5.722,2.351,-2.629,-151.46,13.72,-173.96,-8.55,-14.22
6,jab,224793238.0,5.665,2.758,-2.16,-149.33,27.32,-161.16,-6.55,-14.97
6,jab,224798238.0,5.013,3.304,-1.772,-147.01,39.15,-148.96,-4.78,-15.54
6,jab,224803238.0,3.974,3.984,-1.571,-144.45,48.54,-136.71,-3.16,-15.85
6,jab,224808238.0,2.734,4.784,-1.322,-141.71,54.76,-125.37,-1.68,-15.84
6,jab,224813239.0,1.551,5.521,-1.231,-138.35,57.93,-115.49,-0.27,-15.55
6,jab,224818239.0,0.565,6.258,-1.264,-135.12,57.62,-107.32,1.1,-15.06
6,jab,224823239.0,-0.115,6.886,-1.101,-132.38,53.6,-101.28,2.41,-14.47
6,jab,224828239.0,-0.532,7.298,-0.757,-129.45,46.52,-97.44,3.65,-13.87
6,jab,224833239.0,-0.833,7.542,-0.321,-125.37,36.34,-94.02,4.81,-13.29
6,jab,224838239.0,-1.13,7.781,0.062,-120.73,24.02,-90.43,5.91,-12.74
6,jab,224843239.0,-1.499,8.107,0.278,-116.89,10.0,-85.0,6.98,-12.23
6,jab,224848239.0,-1.772,8.466,0.292,-113.66,-4.7,-78.11,8.04,-11.77
6,jab,224853239.0,-1.973,8.911,0.378,-110.61,-19.21,-70.79,9.09,-11.38
6,jab,224858239.0,-2.069,9.371,0.441,-107.56,-33.41,-63.78,10.13,-11.07
6,jab,224863239.0,-2.14,9.869,0.747,-103.54,-47.5,-57.56,11.13,-10.83
6,jab,224868239.0,-2.107,10.448,1.044,-98.17,-60.67,-51.77,12.12,-10.69
6,jab,224873239.0,-1.954,11.08,1.293,-92.5,-71.95,-45.67,13.09,-10.63
6,jab,224878239.0,-1.604,11.789,1.571,-86.52,-80.61,-39.7,14.05,-10.66
6,jab,224883239.0,-1.154,12.388,1.839,-80.55,-86.52,-34.15,15.0,-10.76
6,jab,224888239.0,-0.632,13.005,2.107,-74.02,-89.45,-28.9,15.96,-10.93
6,jab,224893239.0,-0.158,13.484,2.222,-67.26,-89.7,-23.72,16.92,-11.14
6,jab,224898239.0,0.177,13.824,2.193,-60.43,-87.07,-18.11,17.91,-11.36
6,jab,224903239.0,0.35,13.992,2.107,-53.54,-82.56,-12.01,18.92,-11.56
6,jab,224908239.0,0.354,13.934,1.829,-47.5,-76.52,-5.85,19.95,-11.74
6,jab,224913239.0,0.196,13.637,1.686,-41.52,-69.82,0.06,21.01,-11.86
6,jab,224918239.0,-0.129,13.293,1.384,-35.18,-63.29,5.43,22.1,-11.92
6,jab,224923239.0,-0.565,13.063,1.073,-29.27,-56.52,10.37,23.22,-11.91
6,jab,224928239.0,-1.13,12.977,0.579,-24.39,-48.6,15.24,24.39,-11.81
6,jab,224933239.0,-1.676,13.02,0.163,-20.12,-40.3,19.27,25.58,-11.63
6,jab,224938239.0,-2.155,13.24,0.129,-16.34,-32.62,21.89,26.78,-11.37
6,jab,224943239.0,-2.5,13.628,0.192,-12.99,-25.79,22.68,27.97,-11.06
6,jab,224948239.0,-2.811,14.336,0.321,-10.55,-20.0,21.22,29.13,-10.71
6,jab,224953239.0,-3.146,15.165,0.417,-8.78,-15.91,18.72,30.27,-10.34
6,jab,224958239.0,-3.448,15.998,0.421,-8.54,-12.68,15.79,31.4,-9.96
6,jab,224963239.0,-3.711,16.544,0.378,-9.45,-10.79,13.66,32.49,-9.56
6,jab,224968239.0,-3.879,16.692,0.359,-10.98,-11.22,12.62,33.57,-9.16
6,jab,224973239.0,-4.022,16.434,0.239,-12.07,-13.96,12.5,34.62,-8.77
6,jab,224978239.0,-4.113,15.917,0.029,-12.2,-16.83,13.41,35.67,-8.39
6,jab,224983239.0,-4.243,15.299,-0.306,-11.34,-20.12,15.67,36.72,-8.01
6,jab,224988239.0,-4.247,14.643,-0.627,-10.12,-22.74,18.41,37.78,-7.64
6,jab,224993239.0,-4.094,14.035,-0.886,-8.17,-24.27,20.3,38.86,-7.28
6,jab,224998239.0,-3.826,13.532,-1.025,-6.04,-26.4,21.22,39.94,-6.95
6,jab,225003239.0,-3.486,13.053,-0.953,-3.72,-28.96,20.73,41.01,-6.65
6,jab,225008239.0,-3.141,12.675,-0.919,-1.4,-31.46,19.57,42.06,-6.39
6,jab,225013239.0,-2.796,12.321,-0.915,1.04,-33.9,18.41,43.11,-6.18
7,jab,229368262.0,-1.614,11.406,5.037,13.05,94.57,28.96,105.29,-16.2
7,jab,229373262.0,-4.961,12.345,7.063,25.0,110.91,44.09,104.51,-14.95
7,jab,229378262.0,-9.677,14.336,8.408,42.44,124.21,62.8,103.82,-13.44
7,jab,229383262.0,-15.725,17.492,9.313,61.4,130.98,83.35,103.29,-11.76
7,jab,229388262.0,-23.027,22.419,9.644,80.98,131.16,103.9,102.95,-10.02
7,jab,229393262.0,-31.053,29.985,8.94,96.28,122.99,125.49,102.83,-8.32
7,jab,229398262.0,-37.742,38.642,7.446,98.17,101.89,140.61,102.84,-6.78
7,jab,229403262.0,-40.227,43.527,6.23,82.5,53.54,145.18,102.82,-5.53
7,jab,229408262.0,-36.684,39.95,5.444,50.91,-29.15,132.32,102.66,-4.72
7,jab,229413262.0,-32.01,32.82,3.812,21.59,-118.84,108.29,102.38,-4.32
7,jab,229418262.0,-29.698,28.156,1.226,9.02,-186.65,95.43,102.13,-4.22
7,jab,229423262.0,-29.276,27.931,-0.484,12.93,-226.89,102.2,101.97,-4.32
7,jab,229428262.0,-29.037,30.67,-0.838,28.29,-241.65,120.3,101.9,-4.55
7,jab,229433262.0,-27.648,33.5,0.656,44.82,-237.56,145.0,101.86,-4.83
7,jab,229438262.0,-24.531,33.959,3.242,55.0,-220.85,171.71,101.78,-5.1
7,jab,229443262.0,-20.662,31.943,6.187,59.51,-194.7,196.52,101.62,-5.31
7,jab,229448262.0,-17.444,28.572,8.404,64.15,-161.89,218.54,101.37,-5.39
7,jab,229453262.0,-14.935,24.723,10.06,74.57,-125.61,241.22,101.07,-5.31
7,jab,229458262.0,-12.68,21.289,10.745,93.35,-91.71,264.45,100.77,-5.09
7,jab,229463262.0,-10.338,19.024,10.285,117.07,-63.11,287.01,100.56,-4.79
7,jab,229468262.0,-7.968,17.636,8.337,141.4,-45.85,309.33,100.53,-4.47
7,jab,229473262.0,-5.492,16.434,5.267,165.61,-40.49,334.94,100.78,-4.23
7,jab,229478262.0,-2.926,14.734,1.092,191.71,-33.6,368.96,101.42,-4.09
7,jab,229483262.0,-1.006,11.621,-2.342,220.3,-12.93,415.73,102.5,-3.97
7,jab,229488262.0,-0.211,5.713,-3.859,249.94,15.37,473.9,104.15,-3.78
7,jab,229493262.0,-0.235,-2.883,-3.151,282.32,39.15,539.82,100.7,-3.45
7,jab,229498262.0,-0.115,-11.813,-1.542,319.39,54.51,603.29,98.31,-3.1
7,jab,229503262.0,0.752,-24.095,1.298,358.78,55.79,662.44,96.36,-2.8
7,jab,229508262.0,3.357,-39.653,2.519,405.73,35.49,711.95,94.69,-2.67
7,jab,229513262.0,7.183,-60.42,-0.484,437.87,5.85,750.91,93.14,-2.72
7,jab,229518262.0,16.774,-103.827,-6.038,428.48,-22.38,796.71,91.51,-2.96
7,jab,229523262.0,26.829,-142.68,-20.897,387.32,-67.62,812.5,89.61,-3.45
7,jab,229528262.0,25.68,-132.663,-37.939,344.33,-143.54,800.12,87.38,-4.29
7,jab,229533262.0,27.73,-107.686,-46.476,379.57,-230.79,776.28,85.23,-5.6
7,jab,229538262.0,41.396,-87.125,-48.679,355.12,-284.63,684.33,82.88,-7.33
7,jab,229543262.0,51.245,-47.242,-40.428,240.67,-424.76,447.74,79.79,-10.06
7,jab,229548262.0,46.17,-2.921,-25.695,123.9,-547.74,227.56,75.33,-13.76
7,jab,229553262.0,36.004,28.85,-6.249,2.26,-511.04,78.54,75.88,-17.0
7,jab,229558262.0,28.371,41.678,9.093,-62.68,-331.83,-121.1,75.61,-18.96
7,jab,229563262.0,27.16,29.458,11.88,-82.87,-138.9,-411.95,75.05,-20.07
7,jab,229568262.0,29.094,4.942,-3.697,-93.54,-12.38,-658.23,75.63,-21.29
7,jab,229573262.0,38.288,-15.036,-24.991,-132.93,66.59,-753.6,70.48,-21.59
7,jab,229578262.0,49.842,-31.795,-40.448,-171.77,144.76,-689.57,65.4,-21.33
7,jab,229583262.0,51.284,-39.576,-40.912,-160.18,240.79,-525.67,60.59,-20.57
7,jab,229588262.0,34.084,-33.097,-26.351,-104.57,324.82,-379.15,56.29,-19.34
7,jab,229593262.0,8.94,-22.793,-7.288,-64.76,334.7,-257.56,52.69,-17.72
7,jab,229598262.0,-9.251,-17.636,0.354,-88.66,265.79,-136.65,49.43,-15.51
7,jab,229603262.0,-20.059,-20.265,0.388,-112.74,146.95,-61.04,46.11,-13.59
7,jab,229608262.0,-21.907,-24.641,-4.468,-93.78,2.8,-77.44,42.72,-12.48
7,jab,229613262.0,-18.493,-26.614,-6.847,-82.56,-130.61,-203.6,39.37,-12.19
7,jab,229618262.0,-14.212,-23.597,-7.973,-83.72,-239.09,-359.39,36.0,-12.52
7,jab,229623262.0,-8.734,-16.271,-10.204,-85.37,-308.23,-454.45,32.42,-13.3
7,jab,229628262.0,-1.858,-8.796,-10.817,-95.98,-331.83,-476.89,28.49,-14.5
7,jab,229633262.0,4.851,-2.945,-10.496,-117.01,-319.02,-458.29,24.06,-16.26
7,jab,229638262.0,10.755,-0.067,-9.778,-145.98,-277.56,-421.83,19.27,-18.25
7,jab,229643262.0,14.509,0.081,-9.256,-175.73,-220.79,-386.1,21.61,-20.11
7,jab,229648262.0,15.083,-2.097,-8.978,-197.26,-161.89,-353.54,16.88,-21.67
7,jab,229653262.0,12.594,-5.679,-8.916,-205.61,-108.54,-317.01,12.58,-22.77
7,jab,229658262.0,8.595,-9.543,-8.37,-201.28,-68.6,-276.46,8.72,-23.34
7,jab,229663262.0,4.549,-12.522,-7.638,-188.6,-44.82,-242.26,5.19,-23.43
7,jab,229668262.0,1.207,-14.15,-6.833,-172.26,-36.46,-224.76,1.93,-23.23
7,jab,229673262.0,-1.144,-13.997,-5.818,-154.76,-40.98,-224.45,-1.12,-22.88
7,jab,229678262.0,-2.346,-12.201,-4.673,-139.09,-56.04,-233.17,-4.0,-22.49
7,jab,229683262.0,-2.375,-9.294,-3.903,-128.72,-78.84,-240.91,-6.8,-22.16
7,jab,229688262.0,-1.288,-6.225,-3.443,-125.18,-102.32,-242.44,-9.66,-22.02
7,jab,229693262.0,0.555,-3.572,-3.376,-127.5,-118.35,-236.95,-12.76,-22.29
7,jab,229698262.0,2.782,-1.628,-3.5,-133.11,-121.22,-226.52,-16.26,-23.15
7,jab,229703262.0,4.884,-0.484,-3.529,-139.51,-108.72,-213.54,-20.06,-24.3
7,jab,229708262.0,6.488,0.22,-3.385,-145.91,-82.26,-199.94,-16.85,-25.46
7,jab,229713262.0,7.312,0.589,-3.146,-151.28,-47.01,-185.55,-13.87,-26.51
7,jab,229718262.0,7.23,0.8,-2.796,-154.21,-9.51,-169.27,-11.06,-27.39
7,jab,229723262.0,6.436,0.934,-2.6,-154.76,25.37,-151.65,-8.39,-28.05
7,jab,229728262.0,5.143,1.068,-2.447,-153.23,54.63,-134.45,-5.85,-28.47
7,jab,229733262.0,3.658,1.106,-2.332,-150.24,76.28,-119.39,-3.38,-28.63
7,jab,229738262.0,2.179,1.307,-2.274,-146.52,88.96,-108.05,-1.02,-28.41
7,jab,229743262.0,0.771,1.369,-2.006,-141.77,92.38,-100.55,1.22,-27.74
7,jab,229748262.0,-0.565,1.566,-1.767,-134.57,87.99,-95.85,3.3,-26.49
7,jab,229753262.0,-1.719,1.935,-1.614,-126.59,76.83,-91.77,5.21,-24.9
7,jab,229758262.0,-2.538,2.523,-1.547,-118.9,61.4,-87.93,6.95,-23.29
7,jab,229763262.0,-2.993,3.299,-1.618,-111.83,42.93,-84.51,8.59,-21.83
7,jab,229768262.0,-3.026,4.147,-1.595,-105.67,23.05,-81.65,10.12,-20.59
7,jab,229773262.0,-2.691,5.047,-1.422,-100.24,2.87,-79.82,11.54,-19.62
7,jab,229778262.0,-2.179,5.837,-1.116,-95.18,-17.44,-77.99,12.86,-18.91
7,jab,229783262.0,-1.719,6.68,-0.795,-90.12,-36.71,-74.94,14.1,-18.43
7,jab,229788262.0,-1.24,7.456,-0.546,-85.12,-52.62,-68.35,15.28,-18.13
7,jab,229793262.0,-0.809,8.207,-0.517,-80.43,-64.27,-58.41,16.46,-17.97
7,jab,229798262.0,-0.225,8.768,-0.565,-76.22,-70.91,-47.5,17.63,-17.93
7,jab,229803262.0,0.455,9.323,-0.704,-71.83,-73.23,-37.44,18.81,-17.98
7,jab,229808262.0,1.24,9.687,-0.737,-67.87,-72.26,-29.09,19.99,-18.12
7,jab,229813262.0,1.93,9.974,-0.69,-62.93,-69.27,-22.07,21.16,-18.32
7,jab,229818262.0,2.346,10.161,-0.512,-57.01,-63.84,-14.82,22.31,-18.53
7,jab,229823262.0,2.476,10.482,-0.532,-48.66,-53.05,-2.74,23.49,-18.68
7,jab,229828262.0,2.385,10.98,-0.838,-42.38,-40.43,9.45,24.7,-18.75
7,jab,229833262.0,2.184,11.545,-1.13,-37.01,-25.79,22.01,25.93,-18.71
7,jab,229838262.0,1.968,12.067,-1.216,-31.77,-10.55,32.99,27.17,-18.58
7,jab,229843262.0,1.561,12.584,-1.255,-25.85,3.35,42.07,28.42,-18.33
7,jab,229848262.0,1.063,13.082,-1.346,-20.24,13.84,49.88,29.67,-17.99
7,jab,229853262.0,0.46,13.561,-1.681,-16.16,20.24,57.26,30.94,-17.57
7,jab,229858262.0,-0.144,13.872,-1.887,-14.27,22.2,63.96,32.2,-17.09
7,jab,229863262.0,-0.757,14.064,-2.136,-13.29,20.73,70.0,33.47,-16.59
7,jab,229868262.0,-1.331,14.169,-2.37,-13.41,16.71,75.3,34.72,-16.07
7,jab,229873262.0,-1.609,14.164,-2.533,-14.27,10.12,79.27,35.96,-15.57
7,jab,229878262.0,-1.748,14.083,-2.538,-15.0,2.01,80.85,37.17,-15.11
7,jab,229883262.0,-1.709,14.02,-2.428,-15.55,-7.26,80.55,38.35,-14.71
7,jab,229888262.0,-1.638,14.068,-2.294,-16.28,-17.26,79.21,39.49,-14.37
7,jab,229893262.0,-1.441,14.121,-2.136,-16.95,-27.2,77.93,40.59,-14.1
7,jab,229898262.0,-1.188,14.169,-2.03,-17.5,-36.28,76.95,41.65,-13.9
7,jab,229903262.0,-0.924,14.102,-2.011,-18.35,-43.11,76.28,42.69,-13.76
7,jab,229908262.0,-0.584,13.901,-2.303,-19.82,-47.87,75.98,43.73,-13.67
7,jab,229913262.0,-0.302,13.575,-2.509,-20.91,-50.43,75.18,44.76,-13.62
7,jab,229918262.0,-0.168,13.206,-2.705,-21.34,-49.45,74.21,45.79,-13.57
7,jab,229923262.0,-0.153,12.986,-2.926,-21.22,-46.04,73.29,46.83,-13.51
7,jab,229928262.0,-0.211,12.89,-3.304,-21.22,-40.61,72.93,47.87,-13.42
7,jab,229933262.0,-0.23,12.819,-3.462,-21.59,-33.72,72.99,48.91,-13.3
7,jab,229938262.0,-0.196,12.737,-3.639,-23.11,-27.01,72.74,49.94,-13.15
7,jab,229943262.0,-0.12,12.632,-3.73,-25.0,-21.4,71.77,50.95,-12.98
7,jab,229948262.0,-0.105,12.455,-3.778,-26.89,-16.71,70.3,51.93,-12.8
7,jab,229953262.0,-0.177,12.22,-3.836,-29.15,-13.05,68.29,52.9,-12.59
7,jab,229958262.0,-0.278,11.823,-3.625,-31.34,-10.85,66.52,53.83,-12.36
7,jab,229963262.0,-0.431,11.406,-3.505,-32.8,-10.12,64.15,54.73,-12.12
7,jab,229968262.0,-0.517,11.023,-3.323,-33.78,-10.49,61.77,55.61,-11.88
7,jab,229973262.0,-0.575,10.678,-3.237,-34.21,-12.62,59.21,56.47,-11.65
7,jab,229978262.0,-0.464,10.491,-3.151,-34.09,-15.0,56.52,57.31,-11.44
7,jab,229983262.0,-0.273,10.42,-3.156,-33.96,-16.65,53.66,58.13,-11.26
7,jab,229988262.0,-0.005,10.558,-3.146,-34.15,-17.56,50.91,58.93,-11.12
7,jab,229993262.0,0.383,10.865,-3.309,-34.82,-16.95,49.27,59.72,-11.02
7,jab,229998262.0,0.809,11.286,-3.357,-35.73,-14.63,48.23,60.48,-10.95
7,jab,230003262.0,1.231,11.736,-3.381,-36.34,-10.91,47.56,61.22,-10.9
8,jab,234198296.0,-9.261,16.324,-1.599,84.94,56.04,-41.83,113.68,-10.1
8,jab,234203296.0,-11.55,16.898,-1.724,93.54,49.33,-37.56,113.78,-8.97
8,jab,234208296.0,-13.872,17.679,-1.724,101.77,42.74,-32.62,113.92,-7.82
8,jab,234213296.0,-16.218,18.857,-1.767,109.02,34.94,-26.52,114.08,-6.68
8,jab,234218296.0,-18.397,20.159,-1.547,114.63,23.72,-19.7,114.25,-5.58
8,jab,234223296.0,-20.001,21.567,-1.192,120.24,8.66,-13.41,114.41,-4.57
8,jab,234228296.0,-21.5,22.975,-0.809,125.0,-9.02,-9.63,114.58,-3.67
8,jab,234233296.0,-22.807,24.584,-0.551,128.48,-27.32,-3.66,114.74,-2.87
8,jab,234238296.0,-23.406,26.044,-0.326,129.02,-44.51,6.89,114.89,-2.19
8,jab,234243296.0,-23.214,27.04,-0.072,128.72,-59.7,20.24,115.03,-1.63
8,jab,234248296.0,-22.247,27.428,0.254,127.93,-72.87,35.06,115.15,-1.17
8,jab,234253296.0,-20.863,27.284,0.297,127.07,-83.41,50.3,115.25,-0.81
8,jab,234258296.0,-19.273,26.667,0.326,126.52,-89.02,65.85,115.35,-0.51
8,jab,234263296.0,-17.708,25.742,0.297,126.4,-89.63,82.26,115.45,-0.25
8,jab,234268296.0,-16.132,24.627,0.474,126.04,-87.99,97.38,115.54,-0.01
8,jab,234273296.0,-14.662,23.521,0.953,127.2,-86.04,110.55,115.61,0.21
8,jab,234278296.0,-13.561,22.553,1.341,129.57,-85.06,121.28,115.66,0.4
8,jab,234283296.0,-13.005,22.041,1.528,133.41,-87.26,131.4,115.72,0.58
8,jab,234288296.0,-13.13,21.84,1.456,136.59,-93.78,142.13,115.8,0.73
8,jab,234293296.0,-13.499,21.663,0.79,138.29,-105.55,154.15,115.92,0.83
8,jab,234298296.0,-13.906,21.222,-0.45,140.49,-119.57,166.89,116.11,0.9
8,jab,234303296.0,-13.599,20.265,-1.848,143.66,-133.96,182.5,116.4,0.9
8,jab,234308296.0,-12.081,18.306,-2.964,149.7,-147.2,199.15,116.79,0.82
8,jab,234313296.0,-9.577,15.854,-4.022,156.71,-160.06,211.22,117.31,0.62
8,jab,234318296.0,-6.354,13.168,-4.731,166.65,-168.84,221.65,117.97,0.27
8,jab,234323296.0,-2.71,10.693,-5.665,179.21,-167.2,235.73,118.85,-0.3
8,jab,234328296.0,0.742,8.389,-6.005,192.68,-157.62,255.43,119.93,-1.15
8,jab,234333296.0,3.227,6.397,-5.593,206.4,-142.5,280.37,121.16,-2.24
8,jab,234338296.0,4.578,4.3,-4.611,222.38,-121.59,313.41,122.57,-3.51
8,jab,234343296.0,5.464,0.967,-3.199,241.77,-91.52,359.27,124.57,-5.06
8,jab,234348296.0,5.464,-1.896,-1.796,254.51,-65.73,397.93,120.65,-6.57
8,jab,234353296.0,5.521,-5.248,-0.397,262.26,-45.37,429.21,117.64,-7.59
8,jab,234358296.0,5.473,-12.977,2.16,274.63,-15.55,469.82,115.02,-7.96
8,jab,234363296.0,5.31,-20.384,3.117,289.21,6.95,494.7,112.51,-8.06
8,jab,234368296.0,5.262,-28.587,2.351,298.54,22.01,516.1,110.02,-8.0
8,jab,234373296.0,6.345,-37.766,-1.168,294.51,23.78,534.51,107.43,-7.91
8,jab,234378296.0,8.792,-47.697,-7.034,269.02,15.73,550.85,104.63,-7.88
8,jab,234383297.0,11.559,-57.887,-12.632,226.89,-6.59,566.16,101.6,-7.98
8,jab,234388297.0,14.38,-62.881,-20.13,177.44,-53.9,580.12,98.28,-8.33
8,jab,234393297.0,15.146,-60.535,-27.136,132.62,-128.29,575.12,94.68,-9.05
8,jab,234398297.0,12.847,-54.995,-32.872,92.38,-213.29,559.45,90.83,-10.14
8,jab,234403297.0,9.936,-51.121,-34.213,67.32,-300.37,541.1,86.86,-11.59
8,jab,234408297.0,10.281,-47.621,-31.0,62.01,-366.52,508.84,82.97,-13.36
8,jab,234413297.0,14.346,-41.798,-23.501,51.4,-396.71,436.16,79.17,-15.37
8,jab,234418297.0,19.575,-29.961,-15.936,30.12,-384.39,331.83,75.38,-17.55
8,jab,234423297.0,26.111,-15.897,-11.688,-3.29,-344.45,219.57,71.33,-19.94
8,jab,234428297.0,31.757,-4.712,-10.343,-48.9,-296.46,93.23,66.55,-22.4
8,jab,234433297.0,33.021,1.034,-10.381,-90.67,-214.63,-32.13,68.26,-24.45
8,jab,234438297.0,29.904,1.288,-12.943,-112.01,-103.35,-131.71,69.84,-25.8
8,jab,234443297.0,24.584,-4.396,-16.237,-131.71,10.3,-203.84,64.5,-26.35
8,jab,234448297.0,19.474,-12.388,-18.924,-156.22,105.73,-250.18,59.5,-26.12
8,jab,234453297.0,16.678,-20.13,-18.785,-174.45,180.67,-276.46,54.8,-25.33
8,jab,234458297.0,15.787,-25.891,-16.965,-175.91,238.05,-298.23,50.38,-24.2
8,jab,234463297.0,15.088,-28.271,-14.389,-168.05,276.52,-323.78,46.21,-22.87
8,jab,234468297.0,13.293,-27.763,-11.607,-164.94,301.89,-345.55,42.22,-21.41
8,jab,234473297.0,10.755,-26.513,-8.792,-173.41,306.89,-356.22,38.36,-19.9
8,jab,234478297.0,8.303,-25.958,-7.513,-189.57,292.01,-357.56,34.54,-18.41
8,jab,234483297.0,6.172,-26.844,-7.389,-203.96,265.73,-356.04,30.74,-16.99
8,jab,234488297.0,4.477,-28.539,-8.255,-209.02,235.37,-358.54,26.98,-15.67
8,jab,234493297.0,3.108,-29.908,-9.222,-203.23,205.61,-367.2,23.3,-14.46
8,jab,234498297.0,2.045,-29.947,-9.855,-190.37,177.26,-379.76,19.74,-13.38
8,jab,234503297.0,1.389,-28.261,-10.156,-176.65,151.52,-392.68,16.28,-12.42
8,jab,234508297.0,1.58,-25.422,-9.768,-165.67,129.15,-402.01,12.93,-11.61
8,jab,234513297.0,2.796,-22.094,-9.275,-158.29,113.96,-406.59,9.64,-10.95
8,jab,234518297.0,4.573,-18.943,-8.792,-155.12,107.13,-406.28,6.39,-10.45
8,jab,234523297.0,6.574,-16.295,-8.337,-155.3,107.74,-399.94,3.15,-10.11
8,jab,234528297.0,8.337,-14.274,-7.987,-156.71,113.05,-389.09,-0.06,-9.9
8,jab,234533297.0,9.448,-12.488,-7.776,-158.6,120.3,-373.78,-3.27,-9.76
8,jab,234538297.0,9.859,-10.879,-7.848,-160.0,128.78,-355.06,-6.51,-9.66
8,jab,234543297.0,9.543,-9.438,-7.93,-159.82,136.4,-335.06,-9.76,-9.56
8,jab,234548297.0,8.552,-8.03,-7.767,-157.2,142.38,-315.0,-13.02,-9.42
8,jab,234553297.0,7.005,-6.627,-7.614,-152.62,147.26,-295.24,-16.29,-9.2
8,jab,234558297.0,5.286,-5.291,-7.475,-147.56,150.55,-276.28,-19.58,-8.88
8,jab,234563297.0,3.491,-3.974,-7.278,-142.56,150.73,-259.15,-22.91,-8.42
8,jab,234568297.0,1.796,-2.71,-7.106,-138.17,147.74,-244.51,-26.31,-7.79
8,jab,234573297.0,0.388,-1.456,-6.881,-132.8,140.55,-231.89,-29.8,-7.01
8,jab,234578297.0,-0.666,-0.172,-6.742,-127.38,130.12,-221.1,-33.4,-6.12
8,jab,234583297.0,-1.408,1.14,-6.536,-123.05,117.13,-211.28,-29.93,-5.18
8,jab,234588297.0,-1.834,2.413,-6.297,-119.57,102.07,-202.32,-26.74,-4.28
8,jab,234593297.0,-2.04,3.62,-5.981,-117.2,84.39,-194.33,-23.8,-3.45
8,jab,234598297.0,-2.093,4.731,-5.679,-115.49,65.43,-186.65,-21.09,-2.75
8,jab,234603297.0,-2.131,5.799,-5.497,-113.72,47.07,-178.41,-18.55,-2.16
8,jab,234608297.0,-2.121,6.804,-5.397,-112.44,31.52,-168.66,-16.16,-1.69
8,jab,234613297.0,-1.958,7.638,-5.301,-111.59,20.85,-157.68,-13.89,-1.32
8,jab,234618297.0,-1.705,8.236,-5.181,-111.1,14.33,-147.2,-11.71,-1.02
8,jab,234623297.0,-1.441,8.815,-5.339,-111.04,9.45,-138.11,-9.6,-0.79
8,jab,234628297.0,-1.183,9.404,-5.641,-110.91,6.95,-130.67,-7.53,-0.62
8,jab,234633297.0,-1.03,9.95,-5.784,-109.51,8.84,-123.41,-5.52,-0.46
8,jab,234638297.0,-0.934,10.467,-5.574,-106.83,13.84,-115.98,-3.57,-0.3
8,jab,234643297.0,-0.761,10.908,-5.224,-104.33,18.35,-109.51,-1.7,-0.13
8,jab,234648297.0,-0.536,11.066,-4.506,-101.89,20.85,-104.33,0.08,0.03
8,jab,234653297.0,-0.35,11.023,-3.802,-99.15,19.57,-100.55,1.77,0.16
8,jab,234658297.0,-0.254,10.913,-3.572,-97.74,15.37,-97.13,3.42,0.25
8,jab,234663297.0,-0.302,10.702,-3.117,-97.13,10.0,-92.68,5.0,0.33
8,jab,234668297.0,-0.555,10.405,-2.672,-96.46,4.09,-86.83,6.52,0.4
8,jab,234673297.0,-0.953,10.142,-2.423,-95.12,-2.44,-79.21,7.99,0.49
8,jab,234678297.0,-1.504,10.199,-2.461,-93.96,-10.06,-70.73,9.44,0.59
8,jab,234683297.0,-2.274,10.506,-2.94,-92.93,-19.51,-61.65,10.91,0.72
8,jab,234688297.0,-3.156,11.167,-3.85,-93.05,-28.11,-52.5,12.42,0.87
8,jab,234693297.0,-4.214,11.827,-4.549,-93.41,-35.37,-43.72,13.93,1.04
8,jab,234698297.0,-5.296,12.431,-4.97,-92.8,-40.79,-34.45,15.43,1.25
8,jab,234703297.0,-6.196,12.804,-5.195,-92.01,-45.79,-25.37,16.92,1.49
8,jab,234708297.0,-6.742,12.857,-5.1,-90.12,-50.3,-18.41,18.37,1.73
8,jab,234713297.0,-7.096,12.632,-4.64,-86.71,-55.67,-13.9,19.78,1.98
8,jab,234718297.0,-7.235,12.345,-4.161,-82.01,-60.61,-10.91,21.16,2.22
8,jab,234723297.0,-7.159,12.086,-3.673,-76.52,-65.37,-9.02,22.5,2.45
8,jab,234728297.0,-6.938,11.966,-3.208,-70.49,-67.8,-7.74,23.8,2.65
8,jab,234733297.0,-6.56,12.0,-2.782,-65.12,-66.71,-6.1,25.07,2.83
8,jab,234738297.0,-5.957,12.201,-2.313,-60.67,-62.56,-4.51,26.28,2.98
8,jab,234743297.0,-5.224,12.349,-1.939,-57.2,-56.52,-2.8,27.45,3.1
8,jab,234748298.0,-4.568,12.594,-1.58,-54.21,-47.8,-1.71,28.58,3.2
8,jab,234753299.0,-4.19,12.89,-1.451,-51.89,-36.46,-1.16,29.69,3.32
8,jab,234758299.0,-4.199,13.091,-1.422,-50.24,-22.62,0.06,30.77,3.49
8,jab,234763299.0,-4.568,13.139,-1.346,-49.09,-7.62,1.95,31.83,3.77
8,jab,234768299.0,-5.157,13.072,-1.188,-46.89,6.4,4.88,32.87,4.15
8,jab,234773299.0,-5.751,12.828,-0.996,-43.41,17.2,7.8,33.89,4.63
8,jab,234778299.0,-6.393,12.412,-0.833,-38.54,23.05,10.18,34.9,5.2
8,jab,234783299.0,-6.905,11.985,-0.637,-31.89,23.23,12.32,35.9,5.81
8,jab,234788299.0,-7.25,11.722,-0.733,-25.24,17.38,14.33,36.93,6.41
8,jab,234793299.0,-7.259,11.526,-0.943,-19.09,6.65,16.95,37.99,6.96
8,jab,234798299.0,-6.823,11.516,-1.317,-13.29,-7.44,20.3,39.1,7.39
8,jab,234803299.0,-6.086,11.669,-1.657,-8.6,-21.52,24.02,40.24,7.68
9,jab,239173340.0,0.187,9.538,-2.619,27.56,9.21,29.51,111.29,-10.01
9,jab,239178340.0,-0.345,9.629,-2.097,33.6,18.29,32.87,111.28,-9.68
9,jab,239183340.0,-1.144,9.869,-1.614,40.37,28.9,37.32,111.24,-9.22
9,jab,239188341.0,-2.241,10.199,-1.039,48.41,40.61,42.93,111.16,-8.59
9,jab,239193341.0,-3.821,10.616,-0.292,59.15,53.72,49.57,111.06,-7.75
9,jab,239198341.0,-6.048,11.301,0.536,72.62,69.33,58.23,110.94,-6.7
9,jab,239203341.0,-8.954,12.354,1.302,88.84,85.24,69.33,110.84,-5.43
9,jab,239208341.0,-12.555,13.91,2.212,107.8,99.21,81.34,110.77,-4.0
9,jab,239213341.0,-17.109,16.496,3.352,131.1,112.32,95.0,110.77,-2.46
9,jab,239218341.0,-22.103,20.063,4.013,154.21,123.17,108.78,110.88,-0.86
9,jab,239223341.0,-27.361,25.067,4.879,173.23,126.4,120.12,111.09,0.71
9,jab,239228341.0,-31.929,31.23,5.157,187.56,122.13,125.3,111.4,2.2
9,jab,239233341.0,-35.128,37.407,5.286,190.61,107.26,123.11,111.75,3.54
9,jab,239238341.0,-35.889,40.716,5.066,177.87,73.23,118.48,112.04,4.65
9,jab,239243341.0,-34.065,39.203,4.18,153.96,18.41,112.68,112.23,5.47
9,jab,239248341.0,-31.508,34.711,2.543,130.43,-42.32,104.76,112.34,5.99
9,jab,239253341.0,-29.348,30.497,0.757,115.18,-98.05,102.93,112.43,6.27
9,jab,239258341.0,-27.605,27.859,-1.053,111.34,-138.48,109.09,112.57,6.36
9,jab,239263341.0,-26.106,27.232,-2.116,115.3,-160.06,119.15,112.78,6.32
9,jab,239268341.0,-24.406,27.38,-1.532,123.05,-166.34,131.59,112.99,6.21
9,jab,239273341.0,-21.917,27.102,0.192,130.79,-162.01,146.16,113.16,6.08
9,jab,239278341.0,-18.66,25.848,2.313,136.16,-150.85,162.5,113.26,5.93
9,jab,239283341.0,-15.376,24.124,4.166,140.0,-134.76,179.88,113.29,5.79
9,jab,239288341.0,-12.503,22.036,5.909,144.39,-110.12,199.63,113.23,5.71
9,jab,239293341.0,-10.496,20.174,7.072,152.8,-75.3,223.23,113.13,5.75
9,jab,239298341.0,-9.246,18.794,7.269,162.38,-28.23,256.22,113.04,5.99
9,jab,239303341.0,-8.394,17.114,6.785,166.1,31.34,298.29,112.96,6.52
9,jab,239308342.0,-8.131,14.667,6.57,168.29,88.78,346.22,112.84,7.36
9,jab,239313342.0,-8.38,11.559,4.463,169.76,131.71,400.0,112.79,8.54
9,jab,239318342.0,-8.337,7.432,0.694,167.26,161.04,460.3,113.05,10.12
9,jab,239323342.0,-7.728,1.681,-1.829,168.9,184.39,522.99,114.36,12.26
9,jab,239328342.0,-6.852,-5.397,-1.686,178.05,197.68,582.32,110.8,14.0
9,jab,239333342.0,-5.31,-13.532,-0.68,191.1,195.79,635.61,107.67,15.1
9,jab,239338342.0,-2.954,-22.496,-0.795,205.55,182.2,681.52,104.68,15.84
9,jab,239343342.0,-0.182,-31.599,-2.916,214.88,157.68,723.35,101.73,16.31
9,jab,239348342.0,2.854,-42.205,-5.061,211.04,122.2,765.79,98.8,16.5
9,jab,239353343.0,4.334,-59.261,-6.838,186.89,73.84,802.5,95.8,16.45
9,jab,239358343.0,4.214,-87.872,-9.725,151.04,-3.11,832.93,92.7,16.05
9,jab,239363343.0,5.765,-113.926,-15.926,113.23,-119.94,850.49,89.44,15.09
9,jab,239368343.0,9.328,-105.335,-23.683,91.52,-262.26,771.1,86.05,13.4
9,jab,239373343.0,12.924,-83.95,-25.532,87.99,-354.33,640.85,82.62,11.23
9,jab,239378343.0,22.295,-68.35,-22.166,76.83,-415.67,516.46,79.19,8.62
9,jab,239383343.0,37.139,-51.308,-16.012,70.73,-432.56,386.4,75.8,5.64
9,jab,239388343.0,54.123,-29.774,-9.251,65.61,-404.88,252.26,72.46,2.34
9,jab,239393343.0,68.953,-6.871,-5.061,47.32,-310.37,110.61,68.72,-0.89
9,jab,239398343.0,77.558,17.449,-9.62,8.41,-96.04,-43.9,69.76,-2.85
9,jab,239403344.0,69.398,31.546,-13.34,-49.39,187.32,-177.68,70.38,-3.15
9,jab,239408344.0,42.655,11.77,-17.272,-120.06,417.93,-196.65,71.3,-2.32
9,jab,239413344.0,27.035,-12.704,-19.695,-143.6,511.89,-160.49,66.23,-0.75
9,jab,239418345.0,15.792,-28.683,-18.976,-113.72,509.82,-180.67,61.88,1.28
9,jab,239423345.0,3.539,-34.907,-13.518,-55.24,473.6,-220.49,58.15,3.46
9,jab,239428345.0,-7.709,-34.228,-7.374,-9.39,396.4,-243.84,54.89,5.58
9,jab,239433345.0,-12.704,-31.589,-3.39,17.13,274.09,-251.4,51.96,7.25
9,jab,239438345.0,-10.707,-28.189,-2.452,32.07,122.87,-276.89,49.18,8.12
9,jab,239443345.0,-4.999,-23.152,-4.161,40.06,-10.43,-319.63,46.38,8.15
9,jab,239448346.0,1.408,-17.463,-6.029,36.16,-95.73,-361.16,43.45,7.43
9,jab,239453347.0,6.728,-12.665,-7.183,22.2,-137.62,-388.11,40.3,6.11
9,jab,239458347.0,10.693,-9.045,-8.054,1.04,-153.41,-397.01,36.87,4.41
9,jab,239463347.0,13.628,-6.694,-8.815,-23.29,-150.49,-388.54,33.16,2.56
9,jab,239468347.0,15.864,-5.89,-9.462,-44.27,-129.33,-368.54,29.32,0.78
9,jab,239473347.0,17.482,-6.771,-9.835,-59.33,-90.91,-344.63,25.53,-0.79
9,jab,239478347.0,18.34,-8.997,-10.065,-68.6,-37.74,-324.15,21.92,-2.04
9,jab,239483347.0,18.076,-11.502,-9.859,-76.1,20.67,-311.71,18.5,-2.89
9,jab,239488348.0,16.305,-13.25,-9.313,-80.12,73.66,-304.94,15.23,-3.38
9,jab,239493348.0,13.321,-13.518,-8.686,-81.34,111.95,-299.88,12.07,-3.56
9,jab,239498348.0,9.922,-12.579,-7.93,-81.46,130.85,-293.35,8.99,-3.52
9,jab,239503348.0,6.761,-11.032,-7.207,-81.77,130.85,-285.98,5.95,-3.35
9,jab,239508348.0,4.228,-9.299,-6.579,-83.11,115.55,-279.02,2.91,-3.12
9,jab,239513349.0,2.595,-7.7,-6.014,-85.3,89.94,-273.41,-0.12,-2.92
9,jab,239518349.0,1.877,-6.278,-5.77,-87.44,59.39,-267.93,-3.2,-2.82
9,jab,239523349.0,2.059,-5.009,-5.804,-89.33,29.57,-262.68,-6.36,-2.92
9,jab,239528349.0,2.921,-3.931,-5.856,-90.18,5.37,-257.32,-9.59,-3.28
9,jab,239533349.0,4.185,-2.983,-5.861,-89.88,-9.63,-251.46,-12.9,-3.91
9,jab,239538349.0,5.387,-1.997,-5.986,-89.76,-13.48,-244.57,-16.32,-4.71
9,jab,239543349.0,6.306,-1.097,-5.966,-90.18,-8.66,-234.82,-19.82,-5.58
9,jab,239548349.0,6.891,-0.35,-5.976,-90.49,0.49,-224.45,-23.4,-6.45
9,jab,239553349.0,6.91,0.316,-5.78,-91.16,11.22,-212.56,-19.84,-7.26
9,jab,239558349.0,6.56,0.632,-5.669,-91.28,15.79,-205.61,-16.42,-8.02
9,jab,239563349.0,5.875,0.967,-5.392,-91.28,17.44,-197.93,-13.14,-8.72
9,jab,239568349.0,5.052,1.312,-5.234,-90.73,15.12,-191.77,-10.01,-9.33
9,jab,239573349.0,4.266,1.743,-5.2,-90.49,9.21,-186.95,-7.02,-9.86
9,jab,239578349.0,3.61,2.375,-5.157,-90.73,0.61,-181.22,-4.22,-10.3
9,jab,239583349.0,3.428,2.897,-5.109,-91.28,-6.28,-176.52,-1.57,-10.73
9,jab,239588349.0,3.558,3.304,-5.076,-91.89,-10.73,-172.62,0.95,-11.18
9,jab,239593349.0,3.95,3.903,-5.272,-93.05,-14.76,-165.3,3.34,-11.65
9,jab,239598349.0,4.209,4.29,-5.459,-94.33,-15.85,-159.51,5.65,-12.12
9,jab,239603349.0,4.429,4.908,-5.617,-96.04,-15.49,-148.6,7.84,-12.57
9,jab,239608349.0,4.319,5.397,-5.679,-96.89,-14.63,-138.05,9.94,-12.97
9,jab,239613349.0,3.96,5.804,-5.588,-97.07,-14.15,-126.89,11.94,-13.3
9,jab,239618349.0,3.572,6.211,-5.54,-96.34,-15.37,-116.59,13.87,-13.57
9,jab,239623349.0,3.146,6.522,-5.43,-94.27,-19.02,-108.11,15.72,-13.8
9,jab,239628349.0,2.763,6.828,-5.511,-91.77,-24.21,-101.46,17.54,-13.99
9,jab,239633349.0,2.456,7.087,-5.607,-88.6,-28.96,-96.04,19.32,-14.16
9,jab,239638349.0,2.351,7.384,-5.511,-85.24,-32.13,-90.91,21.05,-14.32
9,jab,239643349.0,2.538,7.556,-5.239,-80.98,-33.11,-86.16,22.73,-14.5
9,jab,239648349.0,2.974,7.767,-4.913,-76.1,-31.1,-82.38,24.35,-14.73
9,jab,239653349.0,3.476,7.963,-4.583,-71.77,-26.65,-79.63,25.91,-14.98
9,jab,239658349.0,3.864,8.179,-4.271,-68.05,-21.16,-77.13,27.41,-15.23
9,jab,239663349.0,4.032,8.442,-4.089,-64.82,-14.57,-74.21,28.86,-15.47
9,jab,239668349.0,3.792,8.758,-3.989,-62.56,-7.74,-69.21,30.26,-15.63
9,jab,239673349.0,3.323,9.06,-4.013,-61.04,-1.4,-62.38,31.64,-15.69
9,jab,239678349.0,2.734,9.222,-4.022,-60.37,4.02,-54.45,32.98,-15.66
9,jab,239683349.0,2.083,9.313,-4.027,-59.45,6.95,-47.5,34.3,-15.55
9,jab,239688349.0,1.513,9.313,-3.984,-58.72,6.89,-42.26,35.59,-15.37
9,jab,239693349.0,0.967,9.299,-4.003,-57.44,4.82,-37.93,36.86,-15.15
9,jab,239698349.0,0.608,9.17,-3.994,-55.73,1.04,-34.45,38.12,-14.91
9,jab,239703349.0,0.35,8.964,-3.721,-53.29,-2.68,-31.52,39.35,-14.67
9,jab,239708349.0,0.378,8.748,-3.457,-49.7,-6.52,-29.15,40.55,-14.45
9,jab,239713349.0,0.608,8.543,-3.06,-45.61,-10.18,-27.56,41.71,-14.29
9,jab,239718349.0,0.991,8.413,-2.571,-41.4,-13.72,-27.01,42.81,-14.2
9,jab,239723349.0,1.389,8.365,-2.155,-36.46,-16.34,-27.01,43.86,-14.18
9,jab,239728349.0,1.666,8.461,-1.891,-31.65,-17.44,-27.01,44.88,-14.2
9,jab,239733349.0,1.796,8.748,-1.738,-27.01,-16.65,-25.3,45.88,-14.22
9,jab,239738349.0,1.891,8.988,-1.614,-23.05,-14.82,-22.8,46.85,-14.24
9,jab,239743349.0,1.963,9.237,-1.695,-19.94,-12.8,-19.82,47.82,-14.26
9,jab,239748349.0,1.958,9.443,-1.963,-17.99,-10.73,-17.38,48.81,-14.26
9,jab,239753349.0,1.757,9.658,-2.351,-16.89,-9.15,-14.94,49.83,-14.22
9,jab,239758349.0,1.413,9.787,-2.806,-16.34,-7.38,-11.95,50.87,-14.13
9,jab,239763349.0,0.939,9.931,-3.352,-16.04,-5.37,-8.05,51.95,-13.97
9,jab,239768349.0,0.484,9.998,-3.654,-16.04,-4.39,-3.66,53.03,-13.77
10,jab,244018374.0,1.283,10.506,-2.394,10.49,8.6,-3.23,115.75,-22.42
10,jab,244023374.0,0.584,11.133,-1.59,14.21,15.55,-3.41,115.47,-21.96
10,jab,244028374.0,-0.464,11.789,-0.536,20.37,22.87,-2.62,115.11,-21.36
10,jab,244033374.0,-1.997,12.775,0.244,28.9,28.84,-0.49,114.73,-20.61
10,jab,244038374.0,-4.195,14.04,0.943,38.66,32.8,3.29,114.35,-19.71
10,jab,244043374.0,-7.053,15.605,1.561,49.88,32.87,7.8,113.99,-18.67
10,jab,244048374.0,-10.817,17.564,2.136,63.78,30.18,13.96,113.69,-17.52
10,jab,244053374.0,-15.39,20.197,2.686,78.96,25.3,23.66,113.45,-16.3
10,jab,244058374.0,-20.346,24.105,2.844,94.94,20.12,33.11,113.31,-15.08
10,jab,244063374.0,-25.862,29.382,3.29,108.9,12.26,40.91,113.25,-13.89
10,jab,244068374.0,-30.833,36.339,3.711,120.18,-4.02,50.18,113.26,-12.83
10,jab,244073374.0,-33.662,43.048,3.687,124.09,-29.76,53.11,113.3,-11.96
10,jab,244078374.0,-32.825,45.744,3.347,112.38,-66.4,42.2,113.3,-11.34
10,jab,244083374.0,-29.315,41.922,3.122,77.07,-118.35,16.83,113.13,-10.99
10,jab,244088374.0,-27.002,36.464,2.212,46.4,-156.59,4.45,112.82,-10.81
10,jab,244093374.0,-25.881,32.35,0.613,27.44,-181.28,7.01,112.48,-10.71
10,jab,244098374.0,-25.661,30.904,-1.02,19.76,-197.68,18.05,112.17,-10.67
10,jab,244103374.0,-25.508,31.235,-2.279,19.82,-213.54,32.93,111.9,-10.72
10,jab,244108374.0,-24.995,31.536,-2.648,22.26,-227.62,51.65,111.67,-10.85
10,jab,244113374.0,-23.411,30.402,-2.14,24.33,-236.1,76.59,111.44,-11.04
10,jab,244118374.0,-20.83,28.046,-1.259,25.79,-237.5,104.33,111.19,-11.26
10,jab,244123374.0,-17.684,25.283,-0.412,29.7,-230.67,131.83,110.93,-11.46
10,jab,244128374.0,-14.222,22.233,0.555,38.11,-212.74,159.02,110.67,-11.62
10,jab,244133374.0,-10.75,19.781,1.202,51.04,-185.0,186.77,110.43,-11.73
10,jab,244138374.0,-7.551,17.808,1.523,65.85,-149.94,218.9,110.25,-11.77
10,jab,244143374.0,-4.98,15.859,1.695,80.98,-111.16,258.66,110.12,-11.73
10,jab,244148374.0,-3.28,13.661,1.815,96.34,-68.72,306.77,110.04,-11.57
10,jab,244153374.0,-2.538,11.301,1.642,109.27,-23.72,362.44,110.01,-11.2
10,jab,244158374.0,-2.308,8.351,1.173,119.21,15.67,419.88,110.03,-10.59
10,jab,244163374.0,-2.418,4.477,0.441,127.87,44.7,473.54,110.14,-9.6
10,jab,244168374.0,-2.753,-0.934,-0.072,139.27,64.27,524.21,106.74,-7.67
10,jab,244173374.0,-2.691,-7.891,-0.517,153.54,73.66,576.04,103.48,-6.78
10,jab,244178374.0,-1.456,-16.539,-0.848,172.5,74.63,626.28,100.4,-6.17
10,jab,244183374.0,1.006,-26.341,-1.824,194.94,71.95,668.78,97.46,-5.74
10,jab,244188374.0,4.573,-41.741,-2.787,212.93,62.68,701.4,94.68,-5.44
10,jab,244193374.0,10.218,-67.21,-5.871,218.78,46.04,743.41,91.96,-5.28
10,jab,244198374.0,24.474,-97.784,-13.374,201.59,21.59,801.71,89.15,-5.35
10,jab,244203374.0,42.497,-110.794,-23.343,225.18,48.6,771.95,86.43,-5.42
10,jab,244208374.0,46.931,-91.051,-31.201,286.22,152.01,671.59,83.93,-5.08
10,jab,244213374.0,44.652,-70.131,-30.622,333.66,237.44,643.78,81.61,-4.42
10,jab,244218374.0,39.456,-54.693,-27.433,320.37,261.46,642.5,79.22,-3.71
10,jab,244223374.0,26.408,-39.677,-24.679,245.43,270.79,572.38,76.4,-2.9
10,jab,244228374.0,9.773,-20.806,-21.27,162.38,235.91,449.51,72.96,-2.05
10,jab,244233374.0,0.939,-3.864,-18.421,86.65,86.89,290.24,68.56,-1.64
10,jab,244238374.0,0.225,3.395,-13.484,26.04,-99.45,99.09,70.63,-2.11
10,jab,244243374.0,0.292,-0.067,-7.111,-4.63,-228.96,-91.28,65.61,-3.24
10,jab,244253374.0,1.647,-11.205,-5.397,-33.17,-312.13,-231.52,58.07,-6.14
10,jab,244258374.0,5.684,-13.331,-7.039,-65.91,-309.88,-267.01,54.23,-7.95
10,jab,244263374.0,11.114,-14.552,-7.23,-99.09,-314.15,-334.45,50.33,-10.01
10,jab,244268374.0,16.4,-13.628,-7.949,-109.94,-327.26,-410.12,46.38,-12.34
10,jab,244273374.0,20.825,-11.583,-9.395,-113.11,-334.63,-455.24,42.32,-14.82
10,jab,244278374.0,23.454,-9.711,-11.382,-116.28,-323.17,-458.05,38.11,-17.26
10,jab,244283374.0,23.952,-8.902,-13.135,-121.95,-283.72,-419.33,33.84,-19.43
10,jab,244288374.0,22.721,-9.96,-14.159,-126.89,-216.22,-357.13,29.64,-21.16
10,jab,244293374.0,20.576,-12.177,-13.925,-129.82,-128.72,-295.98,25.63,-22.33
10,jab,244298374.0,17.727,-14.308,-13.015,-133.72,-36.65,-253.17,21.82,-22.91
10,jab,244303374.0,14.231,-15.514,-11.966,-139.51,40.61,-233.41,18.15,-22.97
10,jab,244308374.0,10.367,-15.677,-10.874,-145.49,90.85,-231.83,14.58,-22.64
10,jab,244313374.0,6.766,-15.174,-10.084,-150.67,113.48,-238.6,11.08,-22.04
10,jab,244318374.0,4.046,-14.609,-9.682,-152.5,116.28,-248.05,7.64,-21.29
10,jab,244323374.0,2.662,-14.097,-9.371,-150.37,107.8,-258.23,4.27,-20.51
10,jab,244328374.0,2.567,-13.566,-9.294,-146.04,95.06,-269.02,0.98,-19.81
10,jab,244333374.0,3.218,-13.087,-9.112,-140.18,82.99,-279.63,-2.22,-19.24
10,jab,244338374.0,3.84,-12.488,-8.633,-133.29,72.56,-287.74,-5.32,-18.78
10,jab,244343374.0,3.97,-11.578,-8.135,-125.24,61.71,-290.18,-8.33,-18.42
10,jab,244348374.0,3.505,-10.429,-7.489,-117.32,46.95,-287.44,-11.25,-18.12
10,jab,244353374.0,2.682,-9.041,-7.058,-110.18,27.74,-280.98,-14.13,-17.89
10,jab,244358374.0,1.925,-7.628,-6.895,-104.57,5.18,-275.0,-17.0,-17.72
10,jab,244363374.0,1.489,-6.258,-6.838,-100.49,-19.21,-272.07,-19.9,-17.64
10,jab,244368374.0,1.441,-4.932,-7.001,-96.71,-42.93,-271.89,-22.87,-17.69
10,jab,244373374.0,1.829,-3.61,-7.173,-93.78,-63.96,-272.01,-25.94,-17.9
10,jab,244378374.0,2.514,-2.394,-7.365,-91.4,-80.24,-269.27,-29.11,-18.3
10,jab,244383374.0,3.443,-1.245,-7.456,-90.0,-91.22,-262.44,-32.38,-18.87
10,jab,244388375.0,4.3,-0.23,-7.551,-89.88,-95.67,-251.77,-35.74,-19.55
10,jab,244393375.0,5.1,0.747,-7.59,-91.28,-92.56,-238.29,-31.98,-20.29
10,jab,244398376.0,5.756,1.618,-7.523,-93.41,-83.17,-223.78,-28.44,-21.03
10,jab,244403376.0,6.187,2.495,-7.355,-96.34,-69.21,-209.39,-25.12,-21.72
10,jab,244408376.0,6.297,3.275,-6.962,-99.45,-53.17,-195.98,-22.01,-22.33
10,jab,244413376.0,6.072,4.128,-6.584,-101.1,-38.17,-182.5,-19.11,-22.83
10,jab,244418376.0,5.684,5.066,-6.34,-101.77,-24.45,-168.84,-16.4,-23.19
10,jab,244423376.0,5.119,5.89,-6.024,-101.52,-11.59,-155.73,-13.85,-23.41
10,jab,244428376.0,4.515,6.627,-5.751,-100.18,1.04,-143.54,-11.45,-23.48
10,jab,244433376.0,3.821,7.192,-5.598,-97.44,13.23,-132.74,-9.14,-23.4
10,jab,244438376.0,3.06,7.623,-5.449,-93.6,24.88,-122.44,-6.9,-23.18
10,jab,244443376.0,2.337,8.03,-5.54,-90.0,35.3,-112.5,-4.71,-22.81
10,jab,244448376.0,1.642,8.26,-5.669,-87.01,43.66,-103.17,-2.56,-22.33
10,jab,244453376.0,1.197,8.432,-5.832,-85.49,48.78,-95.55,-0.43,-21.77
10,jab,244458376.0,0.862,8.471,-5.88,-84.63,49.7,-90.91,1.66,-21.19
10,jab,244463376.0,0.68,8.298,-5.669,-83.41,47.07,-88.84,3.7,-20.61
10,jab,244468376.0,0.484,8.011,-5.473,-81.28,41.89,-87.5,5.72,-20.05
10,jab,244473376.0,0.35,7.781,-5.32,-78.72,36.65,-84.76,7.7,-19.51
10,jab,244478376.0,0.34,7.561,-5.128,-76.22,32.56,-80.24,9.66,-19.01
10,jab,244493378.0,1.896,7.427,-4.391,-68.41,31.04,-65.49,15.24,-17.93
10,jab,244498378.0,2.686,7.527,-3.946,-64.63,34.88,-62.8,16.98,-17.75
10,jab,244508378.0,3.989,7.93,-3.136,-54.7,48.84,-57.44,20.22,-17.54
10,jab,244513378.0,4.276,8.159,-2.878,-48.41,57.44,-53.66,21.77,-17.44
10,jab,244518378.0,4.353,8.456,-2.753,-41.95,67.07,-48.48,23.29,-17.28
10,jab,244523378.0,4.243,8.672,-2.729,-35.98,77.13,-42.07,24.8,-17.06
10,jab,244528378.0,3.912,8.811,-2.638,-30.0,87.26,-35.37,26.29,-16.75
10,jab,244533378.0,3.452,8.82,-2.744,-24.21,96.22,-28.6,27.79,-16.35
10,jab,244538378.0,2.83,8.911,-3.079,-19.45,103.11,-22.13,29.32,-15.85
10,jab,244543378.0,2.222,8.969,-3.539,-15.85,108.05,-15.91,30.89,-15.27
10,jab,244548378.0,1.58,9.007,-3.903,-12.99,111.28,-10.0,32.47,-14.6
10,jab,244553378.0,1.116,9.012,-4.233,-10.67,113.05,-4.45,34.07,-13.88
11,jab,249043404.0,3.361,9.471,-1.944,10.55,11.22,16.89,115.2,-21.6
11,jab,249048404.0,3.256,9.969,-1.422,12.68,18.6,17.74,114.92,-21.44
11,jab,249053404.0,3.127,10.611,-0.656,15.24,27.74,18.96,114.57,-21.2
11,jab,249058404.0,2.988,11.401,0.292,18.9,40.73,19.82,114.14,-20.87
11,jab,249063404.0,2.662,12.407,1.523,23.66,57.68,20.61,113.63,-20.41
11,jab,249068404.0,2.136,13.781,3.041,30.24,77.38,21.34,113.06,-19.8
11,jab,249073404.0,1.259,15.629,4.482,38.72,98.35,21.34,112.47,-19.01
11,jab,249078404.0,-0.158,17.856,6.072,48.6,119.27,21.46,111.88,-18.03
11,jab,249083404.0,-2.188,20.81,7.321,62.2,139.02,20.61,111.36,-16.88
11,jab,249088404.0,-5.143,24.201,8.576,78.72,156.52,18.84,110.93,-15.55
11,jab,249093404.0,-8.978,28.29,9.419,97.13,171.83,17.74,110.62,-14.06
11,jab,249098404.0,-13.752,33.418,10.137,114.33,183.41,17.07,110.43,-12.45
11,jab,249103404.0,-19.661,39.782,10.147,128.54,189.39,21.28,110.36,-10.76
11,jab,249108404.0,-25.307,46.366,9.883,136.28,188.23,32.01,110.38,-9.06
11,jab,249113404.0,-29.889,50.331,9.677,136.34,176.22,42.93,110.43,-7.41
11,jab,249118404.0,-30.497,47.209,8.624,125.67,146.4,44.63,110.43,-5.9
11,jab,249123404.0,-29.219,39.389,8.083,108.17,101.16,23.9,110.32,-4.56
11,jab,249128404.0,-28.295,32.437,7.192,97.38,44.88,-7.93,110.14,-3.44
11,jab,249133404.0,-27.888,29.252,4.726,99.15,-17.8,-29.39,110.04,-2.6
11,jab,249138404.0,-27.505,29.401,1.647,107.2,-80.37,-34.09,110.1,-2.08
11,jab,249143404.0,-26.772,31.115,-0.723,118.29,-130.73,-23.6,110.3,-1.86
11,jab,249148404.0,-24.632,31.67,-1.8,128.05,-163.17,-3.54,110.59,-1.87
11,jab,249153404.0,-20.944,30.301,-1.709,134.27,-175.24,15.55,110.9,-2.0
11,jab,249158404.0,-16.625,27.552,-1.097,137.5,-172.13,28.66,111.2,-2.18
11,jab,249163404.0,-12.349,24.761,-0.426,142.74,-160.49,40.24,111.5,-2.39
11,jab,249168404.0,-8.016,22.252,0.067,155.43,-139.51,58.41,111.82,-2.63
11,jab,249173404.0,-3.419,20.178,0.134,169.94,-108.11,86.46,112.21,-2.92
11,jab,249178404.0,0.924,17.87,-0.096,188.78,-65.79,124.02,112.7,-3.24
11,jab,249183404.0,4.319,15.653,-0.819,207.99,-12.07,172.74,113.32,-3.54
11,jab,249188404.0,6.565,13.23,-1.925,218.96,49.27,231.89,114.1,-3.75
11,jab,249193404.0,8.016,9.989,-3.203,225.55,111.52,295.61,115.08,-3.88
11,jab,249198404.0,9.141,5.899,-4.338,235.12,172.13,354.21,116.45,-3.98
11,jab,249203404.0,10.611,0.824,-4.563,251.22,223.23,403.96,118.75,-4.14
11,jab,249208404.0,12.967,-5.224,-5.152,266.34,266.16,445.73,114.99,-3.96
11,jab,249213404.0,14.858,-12.038,-5.425,274.94,303.11,483.11,111.75,-3.36
11,jab,249218404.0,14.921,-18.89,-5.713,279.82,336.04,528.17,108.75,-2.39
11,jab,249223404.0,14.006,-26.662,-7.57,271.16,365.06,589.02,105.79,-1.09
11,jab,249228404.0,12.943,-39.04,-9.524,242.26,376.95,661.22,102.78,0.42
11,jab,249233404.0,12.277,-59.18,-9.807,198.72,336.46,738.05,99.71,1.83
11,jab,249238404.0,11.358,-84.448,-11.545,155.0,193.9,795.98,96.52,2.59
11,jab,249243404.0,5.966,-94.193,-20.408,121.65,-68.9,786.1,93.14,2.13
11,jab,249248404.0,-3.898,-83.424,-26.293,74.76,-398.54,705.98,89.5,0.19
11,jab,249253404.0,-10.036,-71.309,-30.397,48.66,-759.7,563.9,85.68,-3.39
11,jab,249258404.0,-16.434,-54.545,-30.124,43.72,-1108.84,371.28,81.81,-8.46
11,jab,249263404.0,-14.02,-37.637,-25.345,40.49,-1358.48,208.66,77.89,-14.61
11,jab,249268404.0,1.302,-21.208,-23.353,14.88,-1510.73,74.39,73.65,-21.76
11,jab,249273404.0,28.381,-10.831,-22.285,-31.89,-1585.37,-74.27,68.94,-30.07
11,jab,249278404.0,56.379,-0.919,-21.466,-73.9,-1545.12,-260.91,63.65,-38.43
11,jab,249283404.0,76.107,13.748,-23.645,-66.16,-1293.11,-376.34,65.05,-45.4
11,jab,249288404.0,83.558,22.065,-27.897,-81.16,-826.52,-367.93,66.18,-49.88
11,jab,249293404.0,71.759,13.451,-33.825,-197.93,-241.1,-270.06,67.05,-51.33
11,jab,249298404.0,49.981,-4.132,-39.758,-322.93,290.0,-167.99,60.65,-49.91
11,jab,249303404.0,31.963,-23.181,-43.766,-335.91,701.65,-117.13,54.75,-46.13
11,jab,249308404.0,23.865,-30.325,-41.745,-283.48,866.71,-147.2,49.38,-41.45
11,jab,249313404.0,14.313,-31.273,-34.601,-221.4,967.26,-225.91,44.55,-36.23
11,jab,249318404.0,6.235,-29.085,-24.234,-188.05,970.0,-289.33,40.15,-30.94
11,jab,249323404.0,-0.464,-28.036,-11.87,-163.96,877.2,-312.07,36.28,-26.0
11,jab,249328404.0,-5.368,-26.695,-3.567,-139.39,705.55,-302.74,32.92,-21.8
11,jab,249333404.0,-8.753,-24.497,-1.082,-128.23,516.89,-280.43,29.78,-18.44
11,jab,249338404.0,-10.999,-22.692,-1.571,-128.66,364.7,-259.82,26.68,-15.76
11,jab,249343404.0,-13.034,-21.749,-1.666,-131.22,234.45,-254.39,23.61,-13.68
11,jab,249348404.0,-14.26,-20.47,-1.743,-129.27,135.24,-271.04,20.61,-12.05
11,jab,249353404.0,-14.083,-18.445,-2.83,-130.0,41.46,-302.93,17.59,-10.87
11,jab,249358404.0,-12.728,-16.472,-4.032,-134.7,-16.83,-332.32,14.5,-9.99
11,jab,249363404.0,-8.169,-13.364,-5.693,-141.16,-69.63,-373.29,11.26,-9.55
11,jab,249368404.0,-2.782,-11.061,-6.704,-146.34,-90.91,-398.35,7.89,-9.56
11,jab,249373404.0,3.026,-9.428,-7.154,-150.91,-95.18,-410.0,4.45,-10.12
11,jab,249378404.0,7.724,-8.662,-6.79,-153.23,-84.39,-407.07,1.05,-11.03
11,jab,249383404.0,10.199,-8.294,-6.191,-152.74,-68.17,-392.26,-2.26,-12.04
11,jab,249388404.0,10.041,-7.848,-5.818,-152.38,-51.52,-368.48,-5.49,-12.97
11,jab,249393404.0,7.882,-7.527,-5.679,-154.45,-37.74,-338.41,-8.68,-13.69
11,jab,249398404.0,4.779,-7.475,-5.43,-158.6,-30.18,-308.41,-11.8,-14.11
11,jab,249403404.0,1.628,-7.441,-5.248,-162.07,-34.57,-286.59,-14.86,-14.2
11,jab,249408405.0,-0.972,-7.034,-5.047,-163.9,-52.2,-274.51,-17.88,-14.04
11,jab,249413405.0,-2.557,-6.091,-5.224,-164.21,-76.28,-267.87,-20.94,-13.78
11,jab,249418405.0,-2.72,-4.812,-5.569,-163.54,-96.83,-261.59,-24.11,-13.58
11,jab,249423406.0,-1.575,-3.385,-5.88,-162.38,-107.01,-253.72,-27.42,-13.57
11,jab,249428406.0,0.546,-2.03,-6.263,-161.04,-104.15,-242.13,-30.9,-13.9
11,jab,249433406.0,2.873,-0.895,-6.297,-161.1,-88.72,-227.74,-34.51,-14.55
11,jab,249438406.0,4.697,0.081,-6.076,-161.77,-65.49,-211.4,-31.03,-15.33
11,jab,249443406.0,5.478,0.948,-5.674,-162.68,-39.57,-192.5,-27.8,-16.09
11,jab,249448406.0,5.195,1.844,-5.349,-163.05,-15.55,-170.67,-24.82,-16.69
11,jab,249453406.0,4.08,2.658,-5.219,-163.72,4.21,-147.2,-22.07,-17.04
11,jab,249458406.0,2.567,3.342,-5.215,-165.12,19.15,-124.63,-19.49,-17.05
11,jab,249463406.0,0.958,3.807,-5.258,-166.46,29.02,-105.79,-17.03,-16.74
11,jab,249468406.0,-0.287,4.166,-5.353,-167.93,35.85,-91.4,-14.67,-16.18
11,jab,249473406.0,-1.12,4.396,-5.344,-168.17,42.07,-81.16,-12.39,-15.46
11,jab,249478406.0,-1.389,4.563,-5.296,-167.26,49.51,-73.6,-10.18,-14.69
11,jab,249483406.0,-1.379,4.736,-5.138,-164.7,57.62,-67.87,-8.03,-13.89
11,jab,249488406.0,-1.302,4.942,-4.793,-161.1,65.24,-62.2,-5.98,-13.08
11,jab,249493406.0,-1.298,5.205,-4.343,-156.4,71.46,-55.79,-4.03,-12.25
11,jab,249498406.0,-1.513,5.564,-3.97,-151.83,73.66,-48.29,-2.18,-11.39
11,jab,249503406.0,-1.973,5.923,-3.548,-147.44,70.37,-41.4,-0.44,-10.5
11,jab,249508406.0,-2.686,6.225,-3.141,-143.23,61.34,-35.06,1.2,-9.57
11,jab,249513406.0,-3.505,6.474,-2.696,-139.02,46.59,-29.21,2.75,-8.62
11,jab,249518406.0,-4.166,6.833,-2.605,-135.06,27.87,-23.17,4.25,-7.72
11,jab,249523406.0,-4.563,7.187,-2.461,-131.52,6.89,-17.26,5.69,-6.91
11,jab,249528406.0,-4.496,7.508,-2.442,-127.68,-13.17,-11.52,7.12,-6.24
11,jab,249533407.0,-4.041,7.819,-2.284,-123.41,-30.37,-6.04,8.49,-5.74
11,jab,249538407.0,-3.218,8.303,-2.222,-118.41,-42.99,-0.12,9.84,-5.42
11,jab,249543407.0,-2.231,8.768,-2.16,-114.09,-50.43,6.28,11.16,-5.28
11,jab,249548407.0,-1.221,9.27,-1.863,-109.21,-52.68,13.9,12.43,-5.29
11,jab,249553407.0,-0.412,9.759,-1.532,-103.9,-50.91,22.74,13.65,-5.39
11,jab,249558407.0,0.072,10.257,-1.235,-98.41,-46.83,32.62,14.84,-5.52
11,jab,249563407.0,0.225,10.779,-1.125,-93.17,-41.46,43.41,16.0,-5.63
11,jab,249568407.0,0.067,11.31,-1.101,-88.72,-36.04,54.33,17.16,-5.7
11,jab,249573407.0,-0.182,11.799,-1.063,-83.96,-31.34,64.76,18.31,-5.72
11,jab,249578407.0,-0.555,12.119,-0.781,-78.66,-28.23,74.27,19.43,-5.7
11,jab,249583407.0,-0.895,12.335,-0.771,-72.62,-26.89,83.23,20.56,-5.63
11,jab,249588407.0,-1.073,12.589,-0.737,-66.28,-26.04,91.04,21.69,-5.55
11,jab,249593407.0,-0.977,12.785,-0.871,-60.06,-24.82,97.68,22.84,-5.47
11,jab,249598407.0,-0.747,12.905,-0.939,-53.78,-22.5,103.66,24.0,-5.41
11,jab,249608407.0,-0.11,13.273,-0.776,-41.46,-17.38,111.46,26.33,-5.33
11,jab,249613407.0,-0.081,13.518,-0.699,-35.37,-14.7,114.82,27.49,-5.29
11,jab,249618407.0,-0.201,13.819,-0.881,-30.18,-12.01,117.56,28.67,-5.23
11,jab,249623407.0,-0.579,14.121,-1.125,-26.46,-10.0,119.51,29.86,-5.12
11,jab,249628407.0,-1.144,14.313,-1.331,-23.41,-7.93,120.67,31.05,-4.97
11,jab,249633407.0,-1.796,14.298,-1.556,-20.79,-6.77,120.12,32.25,-4.76
11,jab,249638407.0,-2.461,14.15,-1.714,-17.99,-6.59,118.23,33.46,-4.5
11,jab,249643407.0,-3.084,13.819,-1.781,-15.0,-7.32,115.85,34.66,-4.2
12,jab,253923449.0,-1.355,14.93,-0.517,0.18,69.15,10.0,113.66,-16.51
12,jab,253928449.0,-1.8,14.945,-0.014,1.52,75.18,13.6,113.2,-15.67
12,jab,253933449.0,-2.236,15.06,0.67,3.72,80.79,16.89,112.7,-14.79
12,jab,253938449.0,-2.605,15.385,1.264,6.52,85.61,20.24,112.18,-13.89
12,jab,253943449.0,-2.935,16.07,1.891,10.24,88.29,22.93,111.66,-12.97
12,jab,253948449.0,-3.242,17.071,2.346,14.63,88.72,24.51,111.14,-12.06
12,jab,253953449.0,-3.572,18.316,2.753,18.84,87.2,25.43,110.64,-11.18
12,jab,253958449.0,-3.941,19.666,3.117,23.54,83.96,26.46,110.16,-10.32
12,jab,253963449.0,-4.233,21.026,3.395,28.41,78.96,27.44,109.71,-9.5
12,jab,253968449.0,-4.482,22.3,3.524,33.29,71.89,28.29,109.3,-8.73
12,jab,253973449.0,-4.741,23.181,3.543,38.54,64.76,29.63,108.93,-8.01
12,jab,253978449.0,-5.042,23.669,3.27,44.09,57.8,31.95,108.61,-7.33
12,jab,253983449.0,-5.468,23.755,2.935,48.96,52.07,36.34,108.34,-6.67
12,jab,253988449.0,-5.866,23.43,2.476,53.78,47.26,42.8,108.11,-6.03
12,jab,253993449.0,-6.263,22.802,1.978,58.48,43.29,49.7,107.94,-5.39
12,jab,253998449.0,-6.565,22.161,1.604,64.15,38.84,56.1,107.81,-4.76
12,jab,254003449.0,-7.01,21.648,1.269,71.1,33.35,61.34,107.74,-4.14
12,jab,254008449.0,-7.532,21.27,0.977,79.57,26.95,67.2,107.72,-3.54
12,jab,254013449.0,-7.944,20.83,0.704,88.23,19.76,74.76,107.76,-2.96
12,jab,254018449.0,-8.361,20.332,0.718,97.32,12.93,84.88,107.84,-2.39
12,jab,254023449.0,-8.633,19.752,0.728,106.28,5.43,97.8,107.96,-1.84
12,jab,254028449.0,-8.657,19.201,0.632,113.41,-3.6,112.44,108.12,-1.34
12,jab,254033449.0,-8.246,18.498,0.287,119.02,-14.45,127.87,108.32,-0.9
12,jab,254038449.0,-7.288,17.348,-0.378,122.8,-27.26,142.99,108.58,-0.56
12,jab,254043449.0,-5.689,15.505,-1.221,125.06,-42.74,157.38,108.91,-0.36
12,jab,254048449.0,-3.63,12.991,-2.04,127.8,-59.7,171.89,109.34,-0.33
12,jab,254053449.0,-1.346,10.06,-2.801,132.99,-75.24,188.05,109.92,-0.55
12,jab,254058449.0,0.737,6.876,-3.414,140.12,-89.7,207.13,110.73,-1.09
12,jab,254068449.0,3.381,-0.086,-4.128,159.33,-114.88,255.73,106.95,-3.36
12,jab,254073449.0,4.013,-4.013,-4.501,170.43,-128.6,284.51,102.88,-4.6
12,jab,254078449.0,4.31,-8.447,-4.712,182.93,-145.3,314.57,99.34,-5.7
12,jab,254083449.0,4.645,-13.087,-5.21,197.44,-166.65,344.09,96.09,-6.76
12,jab,254088449.0,4.937,-17.535,-5.895,215.67,-192.38,372.07,93.05,-7.87
12,jab,254093449.0,5.502,-22.774,-6.598,232.2,-214.57,395.24,90.2,-9.03
12,jab,254098449.0,6.144,-28.424,-7.518,247.5,-228.72,415.91,87.51,-10.2
12,jab,254103449.0,7.293,-34.5,-8.792,257.62,-235.24,436.77,84.94,-11.38
12,jab,254108449.0,9.366,-40.61,-11.152,259.57,-235.12,458.48,82.41,-12.56
12,jab,254113449.0,12.742,-45.997,-14.504,259.51,-220.85,473.29,79.88,-13.68
12,jab,254118449.0,16.266,-49.139,-17.751,259.02,-187.01,476.28,77.35,-14.67
12,jab,254123449.0,18.536,-48.478,-19.843,257.93,-139.82,473.23,74.83,-15.45
12,jab,254128449.0,20.102,-44.293,-20.743,255.98,-80.61,468.84,72.28,-15.99
12,jab,254133449.0,20.906,-38.269,-19.594,242.93,-19.82,455.98,69.68,-16.28
12,jab,254143449.0,18.905,-24.114,-16.644,176.22,87.38,358.35,63.97,-16.27
12,jab,254148449.0,17.004,-15.562,-15.222,138.72,125.12,293.66,60.68,-16.09
12,jab,254153449.0,15.653,-7.867,-13.757,87.44,118.05,215.85,56.89,-16.09
12,jab,254158449.0,14.25,-3.242,-11.1,39.15,76.77,116.4,52.67,-16.41
12,jab,254163449.0,10.645,-1.336,-9.084,15.49,30.12,15.55,48.26,-16.92
12,jab,254168449.0,5.741,-2.054,-7.542,6.16,-4.7,-62.68,44.03,-17.33
12,jab,254173449.0,2.088,-4.463,-8.174,-11.4,-20.43,-117.01,40.07,-17.33
12,jab,254178449.0,0.306,-7.57,-10.041,-43.9,-25.0,-164.15,36.19,-17.14
12,jab,254183449.0,0.517,-10.329,-12.067,-82.93,-31.83,-219.15,32.27,-16.99
12,jab,254188449.0,1.954,-12.268,-12.713,-112.56,-42.56,-277.26,28.36,-16.98
12,jab,254193449.0,4.693,-13.044,-12.948,-130.12,-60.55,-326.95,24.46,-17.23
12,jab,254198449.0,7.815,-13.058,-12.718,-140.73,-78.9,-362.01,20.59,-17.73
12,jab,254203449.0,11.004,-13.053,-12.311,-146.16,-89.76,-374.82,16.8,-18.45
12,jab,254208449.0,13.786,-13.273,-11.703,-149.63,-85.85,-370.49,13.1,-19.26
12,jab,254213449.0,16.056,-13.7,-11.162,-150.98,-65.12,-354.76,9.52,-20.04
12,jab,254218449.0,17.396,-14.451,-10.731,-154.57,-29.94,-336.16,6.04,-20.66
12,jab,254223449.0,17.439,-15.289,-10.367,-159.57,11.83,-319.45,2.65,-21.06
12,jab,254228449.0,15.993,-15.96,-10.065,-164.09,51.34,-305.49,-0.65,-21.19
12,jab,254233449.0,13.24,-15.969,-9.969,-167.62,80.67,-294.15,-3.9,-21.08
12,jab,254238449.0,9.826,-15.39,-10.056,-170.91,97.87,-284.63,-7.12,-20.74
12,jab,254243449.0,6.637,-14.413,-10.199,-173.17,105.3,-276.65,-10.33,-20.22
12,jab,254248449.0,4.252,-13.317,-10.214,-173.54,105.24,-272.13,-13.53,-19.58
12,jab,254253449.0,2.907,-12.143,-10.06,-172.62,99.76,-272.5,-16.7,-18.91
12,jab,254258449.0,2.447,-10.937,-9.644,-169.57,90.24,-277.13,-19.82,-18.28
12,jab,254263449.0,2.476,-9.577,-9.232,-165.67,77.74,-282.56,-22.91,-17.75
12,jab,254268449.0,2.677,-8.059,-8.705,-161.77,63.05,-284.88,-25.99,-17.34
12,jab,254273449.0,2.969,-6.536,-8.207,-158.17,46.65,-281.4,-29.08,-17.08
12,jab,254278449.0,3.323,-5.085,-7.791,-155.24,31.16,-273.84,-32.19,-16.98
12,jab,254283449.0,3.558,-3.802,-7.446,-153.29,17.56,-264.27,-35.36,-17.01
12,jab,254288449.0,3.754,-2.581,-7.254,-151.34,6.89,-253.6,-38.6,-17.16
12,jab,254293449.0,3.883,-1.494,-7.087,-150.0,-1.59,-242.8,-41.93,-17.39
12,jab,254298449.0,3.907,-0.484,-6.718,-147.74,-8.72,-232.07,-45.33,-17.68
12,jab,254303449.0,3.754,0.46,-6.297,-144.76,-14.76,-220.98,-41.62,-18.02
12,jab,254308449.0,3.563,1.403,-5.914,-140.85,-19.51,-209.33,-38.14,-18.36
12,jab,254313449.0,3.323,2.279,-5.478,-136.52,-23.29,-196.59,-34.9,-18.69
12,jab,254318449.0,3.122,2.993,-4.956,-131.71,-26.4,-183.17,-31.87,-19.01
12,jab,254323449.0,2.911,3.582,-4.492,-126.04,-29.57,-170.0,-29.02,-19.32
12,jab,254328449.0,2.605,4.132,-4.085,-119.51,-33.05,-157.56,-26.33,-19.57
12,jab,254333449.0,2.207,4.712,-3.673,-112.13,-37.2,-145.43,-23.8,-19.77
12,jab,254338449.0,1.767,5.262,-3.486,-105.06,-41.83,-133.9,-21.37,-19.89
12,jab,254343449.0,1.317,5.923,-3.452,-98.23,-46.59,-122.87,-19.02,-19.94
12,jab,254348450.0,0.996,6.67,-3.515,-92.38,-50.91,-112.8,-16.73,-19.94
12,jab,254353450.0,0.833,7.355,-3.534,-87.38,-55.06,-103.84,-14.51,-19.93
12,jab,254358450.0,0.824,8.068,-3.39,-82.8,-57.99,-96.34,-12.37,-19.92
12,jab,254363450.0,0.919,8.724,-3.338,-78.48,-59.7,-89.88,-10.29,-19.93
12,jab,254368450.0,1.015,9.357,-3.17,-74.63,-58.84,-83.54,-8.28,-19.94
12,jab,254373450.0,1.154,9.787,-2.816,-70.61,-55.91,-76.4,-6.34,-19.94
12,jab,254378450.0,1.259,10.171,-2.543,-66.22,-51.22,-68.9,-4.45,-19.93
12,jab,254383450.0,1.307,10.573,-2.164,-61.83,-45.61,-61.22,-2.63,-19.89
12,jab,254388450.0,1.192,10.836,-1.834,-56.77,-39.82,-53.78,-0.87,-19.81
12,jab,254393450.0,0.972,11.042,-1.542,-51.59,-34.63,-46.65,0.86,-19.69
12,jab,254398450.0,0.599,11.138,-1.35,-46.22,-30.3,-39.7,2.55,-19.5
12,jab,254403450.0,0.225,11.095,-1.259,-41.1,-27.62,-32.44,4.23,-19.27
12,jab,254408450.0,-0.077,10.908,-1.365,-36.22,-26.65,-25.3,5.91,-19.01
12,jab,254413450.0,-0.321,10.544,-1.408,-31.1,-27.8,-19.15,7.59,-18.73
12,jab,254418450.0,-0.536,10.142,-1.58,-25.3,-29.76,-13.54,9.29,-18.44
12,jab,254423450.0,-0.79,9.907,-1.915,-19.63,-32.56,-8.6,11.03,-18.14
12,jab,254428450.0,-1.001,9.898,-2.313,-14.39,-35.43,-4.33,12.8,-17.84
12,jab,254433450.0,-1.144,10.19,-2.629,-9.94,-38.72,-0.91,14.58,-17.55
12,jab,254438450.0,-1.259,10.688,-2.744,-5.91,-42.2,1.65,16.35,-17.28
12,jab,254443450.0,-1.302,11.334,-2.969,-2.68,-46.16,4.15,18.1,-17.03
12,jab,254448450.0,-1.36,11.928,-3.093,-0.49,-50.55,6.89,19.83,-16.81
12,jab,254453450.0,-1.25,12.402,-3.17,0.43,-54.63,10.24,21.52,-16.63
12,jab,254458450.0,-1.106,12.704,-3.218,0.18,-57.07,13.54,23.18,-16.48
12,jab,254463450.0,-0.828,12.962,-3.29,-0.98,-57.93,16.77,24.79,-16.36
12,jab,254468450.0,-0.364,13.015,-3.304,-2.8,-57.01,19.7,26.37,-16.28
12,jab,254473450.0,0.081,12.886,-3.17,-4.21,-54.88,22.26,27.9,-16.24
12,jab,254478450.0,0.512,12.632,-3.06,-5.43,-51.83,24.63,29.39,-16.21
12,jab,254483450.0,0.79,12.321,-2.945,-6.28,-47.56,27.07,30.84,-16.19
12,jab,254488450.0,0.91,11.928,-2.72,-6.59,-43.11,29.63,32.24,-16.16
12,jab,254493450.0,0.862,11.478,-2.485,-6.1,-38.29,32.44,33.61,-16.11
13,jab,259113494.0,-0.096,11.339,-2.787,20.79,29.45,8.41,113.06,-10.64
13,jab,259118494.0,-0.517,12.052,-2.337,22.74,35.61,7.2,112.93,-10.21
13,jab,259123494.0,-1.116,12.929,-1.762,24.27,41.95,5.91,112.75,-9.7
13,jab,259128494.0,-1.901,13.728,-0.718,26.71,49.94,5.3,112.48,-9.1
13,jab,259133494.0,-3.036,14.547,0.594,30.98,60.37,6.46,112.14,-8.39
13,jab,259138494.0,-4.506,15.759,1.676,34.63,69.15,9.57,111.74,-7.56
13,jab,259143494.0,-6.479,17.229,2.825,39.57,73.05,13.78,111.31,-6.65
13,jab,259148494.0,-9.088,19.058,4.07,45.61,74.33,18.84,110.87,-5.65
13,jab,259153494.0,-12.402,21.102,5.909,54.45,77.2,25.43,110.41,-4.57
13,jab,259158494.0,-16.362,23.875,8.001,65.55,78.72,33.41,109.95,-3.43
13,jab,259163494.0,-20.035,27.888,9.567,75.67,74.27,41.04,109.54,-2.32
13,jab,259168494.0,-23.516,33.141,10.616,81.4,62.62,39.88,109.2,-1.28
13,jab,259173494.0,-25.929,38.499,10.841,82.8,41.65,30.43,108.9,-0.39
13,jab,259178494.0,-27.73,42.349,11.243,77.2,12.32,11.65,108.61,0.32
13,jab,259183494.0,-28.558,43.45,11.277,65.67,-22.26,-7.74,108.26,0.86
13,jab,259188494.0,-28.367,42.253,10.793,50.37,-54.45,-22.99,107.86,1.23
13,jab,259193494.0,-27.337,40.347,10.06,37.5,-79.27,-33.05,107.41,1.49
13,jab,259198494.0,-25.541,38.958,9.433,29.02,-98.48,-39.27,106.93,1.62
13,jab,259203494.0,-23.267,38.561,8.696,24.88,-116.16,-41.95,106.46,1.63
13,jab,259208495.0,-20.672,38.288,8.48,23.48,-133.17,-39.94,105.99,1.5
13,jab,259213495.0,-17.856,37.469,8.332,25.18,-148.9,-33.84,105.55,1.24
13,jab,259218495.0,-15.155,35.985,7.963,28.96,-159.82,-23.78,105.13,0.88
13,jab,259223495.0,-12.689,33.859,7.657,34.27,-162.2,-10.85,104.74,0.47
13,jab,259228495.0,-10.482,31.441,7.834,43.6,-155.24,5.12,104.38,0.06
13,jab,259233495.0,-8.361,28.879,7.891,58.41,-141.52,26.95,104.07,-0.32
13,jab,259238495.0,-6.263,26.743,7.614,75.37,-119.45,55.12,103.84,-0.65
13,jab,259243496.0,-4.424,24.363,8.332,94.15,-88.72,90.67,103.65,-0.88
13,jab,259248496.0,-2.902,21.864,8.916,115.0,-55.67,134.45,103.49,-0.99
13,jab,259253496.0,-1.389,18.555,9.175,136.16,-24.94,183.35,103.37,-1.02
13,jab,259258496.0,-0.297,14.629,9.199,162.5,0.67,233.9,103.25,-0.97
13,jab,259263496.0,-0.192,9.749,8.911,195.85,21.34,288.23,103.1,-0.83
13,jab,259268496.0,-1.298,5.243,8.887,234.94,40.24,351.89,102.8,-0.48
13,jab,259273496.0,-3.347,-2.054,11.875,283.78,60.55,427.74,101.94,0.14
13,jab,259278496.0,-4.367,-11.258,14.605,352.13,83.54,500.85,100.87,0.81
13,jab,259283496.0,-4.721,-19.077,15.309,412.2,98.84,551.77,99.85,1.5
13,jab,259288496.0,-3.955,-26.925,14.753,452.56,97.62,577.26,98.84,2.1
13,jab,259293496.0,-1.302,-36.574,11.363,485.43,75.06,582.32,97.79,2.46
13,jab,259298496.0,3.146,-51.092,5.444,501.34,46.52,581.83,96.61,2.57
13,jab,259303496.0,10.918,-78.922,-2.567,491.28,26.52,597.99,95.25,2.49
13,jab,259308496.0,24.904,-116.847,-14.044,454.94,16.65,649.27,93.64,2.28
13,jab,259313496.0,28.05,-124.273,-31.915,427.93,-2.56,648.66,91.77,1.98
13,jab,259318496.0,12.948,-103.133,-47.678,441.89,-71.83,609.94,89.81,1.46
13,jab,259323496.0,6.144,-84.175,-54.765,457.99,-205.55,615.24,87.79,0.35
13,jab,259328496.0,8.203,-69.417,-53.515,420.43,-336.04,586.65,85.54,-1.41
13,jab,259333496.0,14.514,-48.052,-51.092,339.33,-427.07,506.4,82.76,-3.71
13,jab,259338496.0,24.268,-23.425,-44.776,211.34,-491.1,367.99,79.09,-6.55
13,jab,259343496.0,31.862,-0.934,-35.046,79.45,-534.45,173.11,74.33,-9.89
13,jab,259348496.0,31.163,14.7,-17.593,-13.17,-521.4,-27.8,75.58,-13.32
13,jab,259353496.0,25.493,22.673,-5.866,-48.72,-456.4,-159.15,75.92,-16.24
13,jab,259358497.0,22.031,18.287,-2.591,-78.9,-379.27,-222.74,75.98,-18.77
13,jab,259363497.0,22.453,4.741,-4.559,-116.34,-281.71,-280.79,76.57,-21.25
13,jab,259368497.0,21.289,-7.221,-11.171,-154.39,-176.4,-351.16,71.34,-22.85
13,jab,259373498.0,19.858,-15.486,-19.618,-200.43,-67.74,-392.01,66.09,-23.49
13,jab,259378498.0,19.762,-20.882,-26.916,-241.28,38.72,-389.09,60.75,-23.44
13,jab,259383498.0,19.46,-23.822,-29.664,-261.22,131.16,-357.87,55.43,-22.87
13,jab,259388498.0,16.434,-23.894,-25.742,-257.56,190.06,-313.9,50.31,-21.98
13,jab,259393499.0,10.678,-22.826,-19.0,-244.63,212.87,-265.79,45.51,-20.89
13,jab,259398500.0,4.75,-22.596,-12.493,-238.78,210.18,-222.93,41.05,-19.65
13,jab,259403500.0,0.867,-23.511,-8.739,-230.85,190.06,-198.66,36.89,-18.37
13,jab,259408500.0,-1.211,-24.507,-7.24,-215.91,158.96,-197.2,32.97,-17.17
13,jab,259413500.0,-1.82,-24.967,-7.858,-200.18,128.23,-216.1,29.18,-16.12
13,jab,259418500.0,-2.188,-24.464,-8.495,-189.45,106.1,-251.16,25.48,-15.18
13,jab,259423500.0,-2.6,-22.678,-8.758,-179.88,91.95,-290.0,21.87,-14.3
13,jab,259428500.0,-2.715,-19.771,-8.677,-171.28,81.28,-320.49,18.32,-13.47
13,jab,259433500.0,-2.054,-16.606,-8.38,-165.49,71.04,-337.87,14.81,-12.73
13,jab,259438500.0,-0.891,-13.977,-7.982,-164.15,61.65,-344.7,11.31,-12.11
13,jab,259443500.0,0.249,-12.129,-7.891,-164.82,52.56,-344.94,7.82,-11.63
13,jab,259448500.0,0.91,-11.08,-8.083,-164.82,43.29,-341.16,4.33,-11.26
13,jab,259453500.0,0.828,-10.463,-8.471,-161.77,32.74,-332.99,0.87,-10.95
13,jab,259458500.0,0.215,-9.816,-8.935,-154.82,21.04,-320.37,-2.55,-10.64
13,jab,259463500.0,-0.441,-9.299,-9.323,-145.49,8.96,-303.78,-5.91,-10.35
13,jab,259468500.0,-0.828,-8.691,-9.491,-134.7,-3.35,-288.6,-9.21,-10.08
13,jab,259473500.0,-0.919,-7.781,-9.606,-125.18,-17.44,-277.62,-12.46,-9.88
13,jab,259478500.0,-0.982,-6.498,-9.697,-117.87,-32.44,-269.7,-15.71,-9.75
13,jab,259483500.0,-0.814,-4.879,-9.84,-113.66,-44.94,-260.85,-19.02,-9.69
13,jab,259488500.0,-0.402,-3.213,-10.027,-112.68,-52.2,-249.7,-22.44,-9.71
13,jab,259493500.0,0.263,-1.652,-9.85,-113.84,-53.54,-236.4,-25.96,-9.8
13,jab,259498500.0,1.188,-0.321,-9.692,-115.73,-48.66,-222.44,-29.57,-9.99
13,jab,259503500.0,2.188,0.79,-9.414,-117.87,-37.93,-208.48,-26.05,-10.23
13,jab,259508500.0,3.036,1.657,-9.041,-119.94,-23.78,-195.3,-22.72,-10.51
13,jab,259513500.0,3.424,2.318,-8.576,-121.16,-8.35,-181.77,-19.57,-10.76
