rep,label,t_us,ax,ay,az,gx,gy,gz,roll,pitch
0,jab,641942379.0,-7.14,-17.123,8.049,28.35,7.8,2.07,-74.29,4.21
0,jab,641947379.0,-7.599,-16.731,9.189,46.77,12.87,-2.07,-73.8,4.62
0,jab,641952379.0,-8.102,-16.424,10.429,64.21,21.22,-5.91,-73.16,5.09
0,jab,641957379.0,-8.552,-16.046,11.478,75.67,31.89,-9.94,-72.41,5.61
0,jab,641962379.0,-9.179,-15.51,12.608,81.59,43.23,-13.29,-71.58,6.2
0,jab,641967379.0,-9.831,-14.676,13.513,78.48,52.07,-12.44,-70.71,6.86
0,jab,641972379.0,-10.496,-13.522,14.188,64.39,57.5,-7.5,-69.86,7.57
0,jab,641977379.0,-11.344,-12.244,14.763,43.17,58.84,0.73,-69.04,8.32
0,jab,641982379.0,-12.388,-11.052,15.083,14.88,53.96,14.82,-68.31,9.08
0,jab,641987379.0,-13.599,-10.013,15.371,-21.28,43.84,32.62,-67.71,9.85
0,jab,641992379.0,-14.949,-9.318,15.486,-64.39,28.66,52.01,-67.29,10.58
0,jab,641997379.0,-16.242,-8.643,15.265,-112.01,8.05,70.55,-67.09,11.27
0,jab,642002379.0,-17.377,-7.743,14.911,-159.57,-14.88,86.46,-67.08,11.89
0,jab,642007379.0,-18.143,-6.785,14.638,-203.48,-35.91,96.71,-67.23,12.44
0,jab,642012379.0,-18.526,-6.076,14.246,-239.45,-52.62,98.96,-67.52,12.94
0,jab,642017379.0,-18.593,-5.468,13.585,-265.67,-60.67,92.2,-67.91,13.42
0,jab,642022379.0,-18.306,-4.841,12.752,-280.18,-59.88,76.28,-68.34,13.92
0,jab,642027379.0,-17.502,-4.142,11.463,-283.78,-51.28,52.62,-68.76,14.49
0,jab,642032379.0,-16.017,-3.601,9.625,-275.49,-32.56,17.99,-69.15,15.19
0,jab,642037379.0,-14.815,-3.668,7.91,-248.17,-5.0,-27.2,-69.48,16.05
0,jab,642042379.0,-13.384,-3.587,6.0,-199.88,30.12,-78.05,-69.68,17.13
0,jab,642047379.0,-11.779,-3.366,4.405,-138.9,67.07,-129.02,-69.72,18.41
0,jab,642052379.0,-10.324,-2.571,2.72,-77.93,99.39,-175.49,-69.57,19.93
0,jab,642057379.0,-8.806,-1.523,0.862,-21.83,127.74,-213.78,-69.5,21.73
0,jab,642062379.0,-7.063,-0.144,-0.862,26.1,149.76,-244.76,-71.39,23.69
0,jab,642067379.0,-5.44,1.298,-2.15,60.18,159.09,-266.22,-66.69,25.3
0,jab,642072379.0,-3.745,3.06,-3.189,81.77,157.5,-280.98,-62.23,26.37
0,jab,642077379.0,-1.523,4.616,-4.017,92.01,145.98,-289.88,-57.92,26.84
0,jab,642082379.0,1.034,6.053,-4.697,92.68,124.09,-294.02,-53.75,26.76
0,jab,642087379.0,3.826,7.36,-5.167,86.65,96.52,-295.61,-49.75,26.23
0,jab,642092379.0,7.312,8.691,-5.43,75.67,60.12,-298.35,-45.94,25.29
0,jab,642097379.0,10.669,9.318,-5.909,58.9,17.38,-298.11,-42.29,23.99
0,jab,642102379.0,13.781,9.658,-5.646,45.98,-32.44,-302.26,-38.81,22.34
0,jab,642107379.0,17.712,9.328,-5.176,34.51,-76.89,-309.63,-35.48,20.33
0,jab,642112379.0,22.357,9.031,-4.76,26.04,-120.3,-321.28,-32.29,18.03
0,jab,642117379.0,28.118,8.959,-3.888,17.07,-149.51,-332.01,-29.29,15.52
0,jab,642122379.0,34.52,9.558,-2.145,0.43,-163.41,-338.96,-26.65,12.92
0,jab,642127379.0,40.457,9.208,0.101,-16.83,-150.18,-351.4,-24.41,10.39
0,jab,642132379.0,44.187,7.216,1.8,-36.59,-94.09,-368.96,-22.58,8.11
0,jab,642137379.0,45.322,4.037,3.869,-66.34,-21.34,-383.17,-21.53,6.18
0,jab,642142379.0,42.823,-1.025,2.04,-125.61,41.4,-382.56,-22.25,4.52
0,jab,642147379.0,37.163,-4.927,0.397,-195.06,114.27,-355.3,-24.47,3.34
0,jab,642152379.0,32.149,-7.891,-3.558,-261.46,141.22,-319.09,-27.55,2.47
0,jab,642157379.0,27.356,-9.989,-8.653,-322.13,154.76,-261.34,-31.19,1.89
0,jab,642162379.0,22.783,-10.625,-12.005,-379.39,159.39,-188.78,-35.2,1.54
0,jab,642167379.0,19.992,-14.384,-17.248,-424.88,152.07,-116.34,-39.38,1.42
0,jab,642172379.0,18.11,-19.963,-23.348,-466.65,171.04,-51.59,-43.67,1.62
0,jab,642177379.0,13.628,-24.9,-28.888,-511.95,170.43,-0.91,-48.09,2.03
0,jab,642182379.0,9.601,-27.806,-31.441,-514.63,129.88,41.04,-52.42,2.37
0,jab,642187379.0,5.55,-27.457,-30.416,-443.6,37.13,79.15,-56.3,2.35
0,jab,642192379.0,1.58,-24.517,-26.183,-300.24,-77.32,106.46,-59.38,1.87
0,jab,642197379.0,0.723,-21.299,-20.672,-98.54,-146.95,122.26,-61.36,1.09
0,jab,642202379.0,3.05,-16.999,-15.739,100.43,-165.79,113.96,-62.3,0.1
0,jab,642207379.0,7.312,-12.009,-11.712,260.73,-143.41,81.65,-62.46,-1.07
0,jab,642212379.0,11.746,-6.852,-7.336,369.45,-79.15,35.24,-62.14,-2.43
0,jab,642217379.0,13.728,-2.725,-4.721,428.17,-28.6,-12.62,-61.8,-3.89
0,jab,642222379.0,16.577,-1.077,-3.462,440.06,16.65,-46.83,-61.66,-5.28
0,jab,642227379.0,17.075,-0.091,-2.404,398.11,46.04,-42.5,-62.03,-6.59
0,jab,642232379.0,16.606,-0.057,-1.963,332.8,52.13,-5.98,-62.73,-7.87
0,jab,642237379.0,16.726,-0.613,-2.241,265.55,46.59,44.63,-63.47,-9.12
0,jab,642242379.0,16.199,-0.479,-1.537,206.83,37.38,99.88,-64.44,-10.45
0,jab,642247379.0,15.859,-0.283,-0.804,160.0,19.7,149.94,-65.58,-11.88
0,jab,642252379.0,15.668,0.211,-0.867,122.68,-3.72,190.24,-60.34,-13.39
0,jab,642257379.0,15.28,1.02,-1.346,94.7,-21.83,216.16,-55.81,-14.91
0,jab,642262379.0,14.557,1.805,-1.719,72.99,-30.18,226.46,-51.67,-16.36
0,jab,642267379.0,13.494,2.696,-2.217,54.57,-30.3,226.04,-47.78,-17.69
0,jab,642272379.0,12.321,2.945,-2.959,42.93,-21.65,219.02,-43.91,-18.87
0,jab,642277379.0,11.114,2.562,-3.577,41.1,-8.23,207.99,-39.94,-19.9
0,jab,642282379.0,10.123,1.714,-4.228,48.23,5.37,192.74,-35.75,-20.79
0,jab,642287379.0,9.203,0.713,-4.487,65.98,18.96,174.45,-31.29,-21.56
0,jab,642292379.0,8.351,-0.014,-4.295,94.33,28.11,155.12,-33.8,-22.25
0,jab,642297379.0,7.518,-0.555,-3.974,130.43,31.65,131.89,-35.92,-22.88
0,jab,642302379.0,6.78,-0.972,-3.663,166.89,34.76,106.4,-37.69,-23.47
0,jab,642307379.0,6.297,-1.12,-3.27,197.32,38.78,83.29,-39.19,-24.04
0,jab,642312379.0,6.22,-1.039,-2.638,216.52,42.13,65.79,-40.52,-24.66
0,jab,642317379.0,6.22,-0.785,-1.858,222.56,41.28,54.15,-41.76,-25.4
0,jab,642322379.0,6.402,-0.579,-1.288,217.56,33.84,45.06,-42.97,-26.28
0,jab,642327379.0,6.244,-0.254,-0.45,203.48,22.01,42.01,-44.13,-27.35
0,jab,642332379.0,5.818,-0.034,0.464,183.17,5.79,46.4,-42.43,-28.49
0,jab,642337379.0,5.741,-0.019,1.063,154.63,-13.41,52.44,-40.84,-29.57
0,jab,642342379.0,5.516,-0.115,1.647,119.51,-29.82,59.02,-39.52,-30.59
0,jab,642347379.0,5.286,-0.359,2.236,87.74,-48.48,67.8,-38.48,-31.56
0,jab,642352379.0,4.961,-0.91,2.792,55.73,-64.27,77.13,-37.8,-32.43
0,jab,642357379.0,4.554,-1.595,3.448,29.63,-71.71,84.7,-37.4,-33.13
0,jab,642362379.0,3.807,-2.456,3.84,10.3,-75.0,91.77,-37.25,-33.64
0,jab,642367379.0,3.165,-3.357,4.027,-3.6,-72.32,95.37,-37.32,-33.94
0,jab,642372379.0,2.892,-4.338,4.195,-9.82,-60.91,94.63,-37.54,-34.07
0,jab,642377379.0,2.413,-5.353,4.444,-6.83,-48.05,90.3,-37.83,-34.01
0,jab,642382379.0,1.882,-6.292,4.381,1.1,-36.22,82.26,-38.17,-33.78
0,jab,642387379.0,1.197,-7.197,4.764,13.29,-20.79,73.11,-38.47,-33.37
0,jab,642392379.0,0.618,-7.843,5.1,30.85,-8.72,63.9,-38.69,-32.82
0,jab,642397379.0,0.172,-8.308,5.329,44.27,6.04,54.57,-38.85,-32.15
0,jab,642402379.0,-0.081,-8.361,5.325,56.89,22.26,47.32,-38.94,-31.39
0,jab,642407379.0,-0.105,-8.14,5.301,60.0,31.22,44.39,-39.01,-30.6
0,jab,642412379.0,-0.402,-8.112,5.741,57.26,32.38,45.3,-39.04,-29.78
0,jab,642417379.0,-1.207,-8.217,6.263,46.1,25.98,49.51,-39.09,-28.92
0,jab,642422379.0,-2.212,-8.337,6.704,28.96,15.85,54.51,-39.19,-28.03
0,jab,642427379.0,-2.854,-8.705,7.163,6.89,8.35,57.68,-39.38,-27.15
0,jab,642432379.0,-3.649,-8.993,7.647,-14.94,-2.99,62.5,-39.66,-26.28
0,jab,642437379.0,-4.492,-9.309,7.815,-35.49,-12.93,68.66,-40.04,-25.41
0,jab,642442379.0,-5.219,-9.821,7.949,-52.32,-18.9,74.82,-40.51,-24.54
0,jab,642447379.0,-5.808,-10.372,8.006,-63.35,-20.98,78.66,-41.06,-23.68
0,jab,642452379.0,-6.076,-10.913,8.054,-68.9,-17.13,78.72,-41.65,-22.8
0,jab,642457379.0,-6.23,-11.123,8.112,-69.76,-11.77,75.73,-42.24,-21.92
0,jab,642462379.0,-6.407,-10.956,8.054,-64.33,-7.44,70.61,-42.78,-21.01
0,jab,642467379.0,-6.46,-10.846,8.068,-55.73,-1.71,63.11,-43.26,-20.09
0,jab,642472379.0,-6.282,-10.625,7.954,-48.35,3.41,52.38,-43.7,-19.16
0,jab,642477379.0,-5.751,-10.573,7.614,-44.76,8.35,40.3,-44.13,-18.26
0,jab,642482379.0,-5.138,-10.774,7.369,-46.4,13.35,31.52,-44.59,-17.4
0,jab,642487379.0,-4.927,-11.272,7.202,-51.71,15.18,28.11,-45.1,-16.58
0,jab,642492379.0,-4.879,-11.866,7.096,-58.11,14.27,27.62,-45.66,-15.79
0,jab,642497379.0,-5.095,-12.412,7.116,-64.33,12.93,30.85,-46.27,-15.02
0,jab,642502379.0,-5.282,-12.919,7.044,-69.76,10.79,36.28,-46.91,-14.27
0,jab,642507379.0,-5.176,-13.278,6.766,-73.35,10.79,40.0,-47.59,-13.55
0,jab,642512379.0,-5.234,-13.762,6.608,-75.85,11.4,42.5,-48.3,-12.84
0,jab,642517379.0,-5.612,-13.982,6.584,-76.16,12.8,43.78,-49.0,-12.12
0,jab,642522379.0,-6.12,-14.102,6.249,-73.6,19.15,45.79,-49.71,-11.35
0,jab,642527379.0,-6.512,-14.236,6.287,-62.44,21.28,45.85,-50.34,-10.57
0,jab,642532379.0,-6.402,-14.064,5.818,-55.24,20.73,39.82,-50.96,-9.8
0,jab,642537379.0,-5.54,-13.522,5.44,-45.98,20.24,27.01,-51.52,-9.09
1,jab,646297379.0,-0.685,-9.615,2.543,-3.48,-0.24,1.16,-76.1,3.0
1,jab,646302379.0,-0.704,-9.663,2.437,-3.29,-0.43,-0.3,-76.11,3.02
1,jab,646307379.0,-0.656,-9.682,2.461,-3.05,-0.24,-2.32,-76.12,3.03
1,jab,646312379.0,-0.852,-9.749,2.284,-2.26,-0.55,-3.96,-76.14,3.06
1,jab,646317379.0,-0.699,-9.72,2.303,-0.37,-0.49,-6.65,-76.16,3.08
1,jab,646322379.0,-0.536,-9.735,2.337,-0.49,-0.43,-8.35,-76.17,3.08
1,jab,646327379.0,-0.455,-9.625,2.409,-0.98,0.18,-8.96,-76.17,3.07
1,jab,646332379.0,-0.407,-9.577,2.437,-0.73,0.67,-9.39,-76.16,3.06
1,jab,646337379.0,-0.426,-9.663,2.452,-0.18,1.89,-10.06,-76.15,3.06
1,jab,646342379.0,-0.45,-9.759,2.49,-0.3,3.6,-10.12,-76.15,3.06
1,jab,646347379.0,-0.46,-9.84,2.504,-1.52,4.76,-9.51,-76.14,3.08
1,jab,646352379.0,-0.469,-9.941,2.547,-2.44,5.61,-8.48,-76.15,3.1
1,jab,646357379.0,-0.618,-9.974,2.543,-3.35,5.85,-7.38,-76.15,3.13
1,jab,646362379.0,-0.709,-9.969,2.591,-3.41,5.73,-6.4,-76.16,3.18
1,jab,646367379.0,-0.852,-9.998,2.634,-3.72,5.61,-5.18,-76.16,3.23
1,jab,646372379.0,-1.006,-10.065,2.686,-4.39,5.55,-3.84,-76.16,3.31
1,jab,646377379.0,-1.197,-10.022,2.811,-5.24,5.73,-3.66,-76.15,3.4
1,jab,646382379.0,-1.389,-10.046,3.017,-5.98,7.07,-3.35,-76.12,3.52
1,jab,646387379.0,-1.59,-10.046,3.218,-6.65,10.0,-2.99,-76.07,3.67
1,jab,646392379.0,-1.82,-10.204,3.275,-7.44,12.87,-2.56,-76.03,3.85
1,jab,646397379.0,-2.131,-10.405,3.443,-9.21,14.82,-2.62,-75.99,4.07
1,jab,646402379.0,-2.523,-10.63,3.615,-11.28,16.28,-2.62,-75.95,4.32
1,jab,646407379.0,-2.993,-10.951,3.768,-12.74,18.48,-1.4,-75.91,4.61
1,jab,646412379.0,-3.524,-11.339,3.816,-14.15,20.37,0.24,-75.89,4.95
1,jab,646417379.0,-4.118,-11.665,3.922,-14.51,20.73,2.01,-75.87,5.32
1,jab,646422379.0,-4.927,-12.148,4.123,-12.99,20.55,2.38,-75.84,5.73
1,jab,646427379.0,-5.823,-12.632,4.324,-8.17,20.91,-0.43,-75.79,6.19
1,jab,646432379.0,-6.297,-13.091,4.573,-3.05,22.26,-4.57,-75.7,6.67
1,jab,646437379.0,-6.685,-13.369,5.018,0.24,22.68,-7.13,-75.58,7.15
1,jab,646442379.0,-6.847,-13.422,5.483,3.05,22.07,-9.57,-75.41,7.62
1,jab,646447379.0,-7.13,-13.542,5.947,6.46,21.83,-12.32,-75.19,8.09
1,jab,646452379.0,-7.465,-13.843,6.507,11.71,21.04,-16.34,-74.93,8.55
1,jab,646457379.0,-7.963,-14.121,7.283,16.28,19.57,-21.22,-74.6,9.01
1,jab,646462379.0,-8.59,-14.279,7.805,20.06,17.01,-24.21,-74.24,9.47
1,jab,646467379.0,-9.117,-14.14,8.471,20.43,14.09,-27.68,-73.84,9.92
1,jab,646472379.0,-9.27,-13.795,9.131,18.17,10.06,-29.57,-73.4,10.36
1,jab,646477379.0,-9.333,-13.537,9.615,16.16,7.8,-28.9,-72.95,10.78
1,jab,646482379.0,-9.213,-13.302,10.032,11.04,6.52,-29.63,-72.49,11.17
1,jab,646487379.0,-9.179,-13.182,10.4,4.51,5.49,-30.12,-72.06,11.55
1,jab,646492379.0,-9.299,-13.24,10.63,-2.56,6.04,-27.62,-71.65,11.92
1,jab,646497379.0,-9.294,-13.197,10.63,-8.9,8.11,-24.02,-71.29,12.3
1,jab,646502379.0,-9.074,-12.914,10.554,-13.35,10.79,-20.49,-70.94,12.68
1,jab,646507379.0,-8.978,-12.541,10.41,-16.28,14.45,-17.13,-70.61,13.07
1,jab,646512379.0,-9.017,-12.287,10.175,-17.99,19.51,-13.23,-70.29,13.49
1,jab,646517379.0,-9.103,-12.019,9.835,-19.39,26.16,-9.82,-69.99,13.96
1,jab,646522379.0,-9.127,-11.511,9.294,-21.65,32.38,-8.6,-69.72,14.47
1,jab,646527379.0,-9.342,-10.788,8.772,-19.88,36.1,-6.95,-69.44,15.04
1,jab,646532379.0,-9.471,-10.444,8.174,-15.61,40.12,-8.78,-69.17,15.64
1,jab,646537379.0,-9.902,-9.553,7.992,-14.15,41.34,-14.33,-68.86,16.3
1,jab,646542379.0,-10.108,-9.002,7.705,-12.8,43.96,-17.74,-68.53,17.0
1,jab,646547379.0,-10.151,-8.432,7.312,-12.44,46.95,-22.5,-68.2,17.74
1,jab,646552379.0,-10.127,-7.657,6.914,-12.2,48.78,-28.84,-67.86,18.51
1,jab,646557379.0,-10.003,-6.857,6.436,-11.65,47.8,-37.99,-67.49,19.31
1,jab,646562379.0,-9.572,-6.105,6.038,-10.24,46.28,-48.78,-67.1,20.11
1,jab,646567379.0,-8.988,-5.301,5.847,-9.88,45.55,-58.96,-66.65,20.91
1,jab,646572379.0,-8.198,-4.592,5.411,-11.59,44.7,-68.84,-66.18,21.69
1,jab,646577379.0,-7.393,-3.874,4.851,-14.82,42.68,-78.72,-65.7,22.47
1,jab,646582379.0,-6.828,-3.141,4.314,-19.15,36.4,-87.13,-65.2,23.24
1,jab,646587379.0,-6.148,-2.653,3.907,-24.76,26.28,-92.44,-64.7,23.95
1,jab,646592379.0,-5.205,-2.136,3.414,-32.8,15.67,-96.04,-64.21,24.59
1,jab,646597379.0,-3.864,-1.46,2.825,-42.62,5.24,-98.23,-63.68,25.14
1,jab,646602379.0,-2.303,-0.608,2.26,-52.87,-6.77,-99.21,-62.97,25.49
1,jab,646607379.0,-0.934,0.225,1.796,-62.87,-18.6,-100.49,-61.87,25.44
1,jab,646612379.0,0.259,0.809,1.69,-71.34,-26.89,-105.37,-60.47,24.64
1,jab,646617379.0,1.355,1.063,1.384,-76.89,-30.37,-114.02,-58.89,23.24
1,jab,646622379.0,2.61,1.518,0.958,-80.43,-28.9,-124.51,-56.95,21.53
1,jab,646627379.0,3.984,1.954,0.259,-80.67,-27.74,-134.7,-54.56,19.69
1,jab,646632379.0,5.464,2.203,-0.335,-75.12,-24.76,-147.99,-51.86,17.81
1,jab,646637379.0,6.867,2.375,-0.632,-63.9,-19.27,-162.62,-49.04,15.96
1,jab,646642379.0,7.896,2.576,-1.125,-49.7,-14.09,-174.94,-46.03,14.16
1,jab,646647379.0,9.898,2.916,-1.891,-36.22,-7.5,-187.38,-42.83,12.43
1,jab,646652379.0,11.904,3.51,-2.418,-23.9,-5.18,-197.99,-39.6,10.75
1,jab,646657379.0,13.977,3.677,-2.801,-21.28,-9.15,-203.84,-36.36,9.05
1,jab,646662379.0,16.85,3.62,-3.256,-27.26,-15.3,-202.56,-33.13,7.32
1,jab,646667379.0,20.14,3.84,-3.457,-40.79,-24.39,-198.29,-30.03,5.54
1,jab,646672379.0,23.722,3.347,-3.625,-68.11,-33.35,-193.78,-27.02,3.7
1,jab,646677379.0,26.992,1.844,-3.745,-104.45,-33.78,-192.32,-23.91,1.84
1,jab,646682379.0,29.166,-0.637,-3.883,-148.05,-23.48,-194.39,-27.57,0.04
1,jab,646687379.0,29.923,-3.998,-4.334,-191.52,-6.22,-195.61,-30.71,-1.57
1,jab,646692379.0,29.286,-7.398,-5.023,-231.65,15.49,-187.87,-33.71,-2.92
1,jab,646697379.0,27.672,-10.879,-6.646,-260.85,33.11,-167.44,-36.74,-4.0
1,jab,646702379.0,25.436,-13.848,-8.801,-276.1,51.65,-136.52,-39.81,-4.82
1,jab,646707379.0,23.071,-15.443,-11.229,-285.98,62.99,-103.11,-42.94,-5.42
1,jab,646712379.0,19.532,-17.008,-13.388,-284.57,62.38,-71.95,-46.04,-5.85
1,jab,646717379.0,16.012,-18.119,-15.38,-261.89,57.07,-44.88,-49.0,-6.13
1,jab,646722379.0,12.368,-18.402,-15.763,-227.68,52.93,-17.38,-51.75,-6.29
1,jab,646727379.0,9.878,-18.536,-16.281,-183.96,47.68,3.17,-54.24,-6.36
1,jab,646732379.0,8.356,-18.167,-15.725,-129.27,38.11,10.73,-56.41,-6.43
1,jab,646737379.0,8.547,-18.129,-15.859,-66.34,25.85,6.16,-58.23,-6.57
1,jab,646742379.0,8.782,-16.443,-14.724,-10.49,23.48,8.23,-59.75,-6.76
1,jab,646747379.0,9.112,-15.438,-13.848,40.79,21.16,9.15,-61.0,-6.99
1,jab,646752379.0,9.165,-14.552,-12.373,91.34,17.99,7.8,-61.94,-7.28
1,jab,646757379.0,9.677,-13.403,-10.755,132.87,10.0,7.01,-62.62,-7.67
1,jab,646762379.0,9.677,-12.115,-8.782,165.18,4.63,8.9,-63.08,-8.15
1,jab,646767379.0,10.506,-10.391,-7.25,189.51,2.26,15.06,-63.39,-8.77
1,jab,646772379.0,11.952,-8.973,-4.769,204.76,28.23,28.48,-63.48,-9.45
1,jab,646777379.0,13.321,-7.685,-5.162,198.05,13.72,48.9,-63.71,-10.3
1,jab,646782379.0,13.561,-6.584,-3.989,177.26,11.16,62.87,-63.99,-11.25
1,jab,646787379.0,12.579,-5.143,-2.03,158.48,13.9,79.15,-64.17,-12.28
1,jab,646792379.0,12.718,-4.233,-2.16,138.17,0.85,95.91,-64.55,-13.42
1,jab,646797379.0,11.966,-3.505,-1.987,111.46,2.07,107.68,-65.1,-14.57
1,jab,646802379.0,11.43,-2.691,-1.604,92.8,-2.62,115.0,-65.76,-15.78
1,jab,646807379.0,10.4,-2.131,-1.992,72.38,-8.72,119.02,-66.75,-17.0
1,jab,646812379.0,9.457,-2.217,-1.935,62.38,-11.77,117.99,-67.74,-18.17
1,jab,646817379.0,8.514,-2.452,-1.839,59.39,-13.72,113.35,-68.63,-19.28
1,jab,646822379.0,7.676,-2.48,-1.891,59.88,-16.22,105.61,-69.51,-20.33
1,jab,646827379.0,7.025,-2.6,-1.705,64.15,-13.72,96.65,-70.27,-21.31
1,jab,646832379.0,6.57,-2.816,-1.484,71.16,-13.48,86.4,-70.87,-22.23
1,jab,646837379.0,6.258,-3.141,-1.504,78.9,-12.8,74.15,-71.38,-23.07
1,jab,646842379.0,5.904,-3.596,-1.312,88.78,-10.37,59.94,-71.72,-23.8
1,jab,646847379.0,5.521,-3.974,-0.939,99.27,-7.56,46.83,-71.86,-24.43
1,jab,646852379.0,5.636,-4.386,-0.546,108.48,-2.62,37.07,-71.83,-24.99
1,jab,646857379.0,6.062,-4.851,-0.019,113.96,1.34,33.54,-71.64,-25.51
1,jab,646862379.0,6.167,-5.2,0.417,114.94,1.95,38.41,-71.36,-25.99
1,jab,646867379.0,6.416,-5.282,0.646,108.9,2.13,43.35,-71.06,-26.47
1,jab,646872379.0,6.752,-5.2,0.766,98.78,0.49,49.27,-70.78,-26.98
1,jab,646877379.0,7.025,-5.329,0.867,87.8,-2.44,54.45,-70.55,-27.5
1,jab,646882379.0,6.416,-5.665,1.192,75.3,-7.01,60.67,-70.33,-27.94
1,jab,646887379.0,5.478,-6.297,1.346,62.93,-12.8,64.57,-70.18,-28.25
1,jab,646892379.0,4.621,-6.737,1.398,52.56,-14.7,64.82,-70.08,-28.44
2,jab,650882379.0,-13.154,-5.698,10.683,-42.99,73.66,-52.62,-63.24,14.54
2,jab,650887379.0,-13.115,-5.555,9.969,-61.89,60.12,-61.46,-62.86,15.52
2,jab,650892379.0,-12.637,-5.588,9.041,-83.17,43.66,-68.29,-62.65,16.43
2,jab,650897379.0,-11.54,-5.195,7.57,-114.7,21.1,-73.48,-62.65,17.23
2,jab,650902379.0,-10.247,-4.554,6.057,-156.22,-11.16,-76.83,-62.9,17.9
2,jab,650907379.0,-8.859,-4.099,4.515,-202.2,-50.12,-75.37,-63.48,18.41
2,jab,650912379.0,-7.384,-4.252,3.333,-257.32,-88.54,-68.29,-64.51,18.68
2,jab,650917379.0,-5.061,-5.152,1.8,-304.09,-117.5,-65.79,-66.12,18.59
2,jab,650922379.0,-1.872,-7.532,0.254,-333.05,-121.83,-70.18,-68.19,17.9
2,jab,650927379.0,1.283,-9.869,-0.838,-325.06,-105.24,-83.72,-70.32,16.88
2,jab,650932379.0,4.013,-12.019,-1.322,-274.45,-64.94,-103.72,-72.18,15.86
2,jab,650937379.0,6.57,-13.144,-1.331,-185.37,-5.55,-124.88,-73.56,14.98
2,jab,650942379.0,8.629,-13.302,-1.269,-74.15,63.54,-139.7,-74.36,14.34
2,jab,650947379.0,9.864,-12.081,-1.326,37.74,129.88,-150.91,-74.62,13.91
2,jab,650952379.0,10.52,-10.3,-1.59,138.05,185.91,-159.09,-74.42,13.63
2,jab,650957379.0,10.582,-8.274,-1.537,218.96,221.34,-165.0,-73.87,13.41
2,jab,650962379.0,10.094,-5.986,-1.508,278.11,245.18,-170.43,-73.11,13.18
2,jab,650967379.0,9.754,-3.519,-0.838,308.66,262.38,-171.4,-72.21,12.81
2,jab,650972379.0,9.333,-1.618,-1.374,306.65,253.78,-166.89,-71.87,12.25
2,jab,650977379.0,8.964,0.139,-1.346,287.8,234.82,-162.44,-65.54,11.53
2,jab,650982379.0,8.983,1.757,-1.307,253.05,203.11,-159.7,-60.45,10.77
2,jab,650987379.0,8.839,3.251,-1.312,206.28,154.45,-158.41,-55.99,9.94
2,jab,650992379.0,9.936,4.233,-0.824,151.28,107.26,-163.05,-52.11,8.94
2,jab,650997379.0,11.483,4.63,-0.498,91.34,53.72,-170.79,-48.7,7.66
2,jab,651002379.0,13.197,4.65,-0.005,34.15,8.17,-184.57,-45.76,6.14
2,jab,651007379.0,15.361,3.931,0.656,-16.34,-23.84,-200.0,-43.31,4.39
2,jab,651012379.0,17.545,2.82,1.532,-61.77,-40.91,-212.56,-41.52,2.51
2,jab,651017379.0,19.963,1.14,2.15,-104.82,-50.24,-221.1,-40.64,0.55
2,jab,651022379.0,22.089,-0.843,2.614,-140.73,-45.67,-227.26,-40.88,-1.34
2,jab,651027379.0,23.439,-2.863,2.485,-180.06,-33.41,-225.06,-41.92,-3.1
2,jab,651032379.0,23.808,-4.798,1.642,-225.73,-21.52,-205.98,-43.61,-4.7
2,jab,651037379.0,23.094,-6.742,0.397,-270.91,-12.62,-169.39,-45.8,-6.14
2,jab,651042379.0,22.156,-9.012,-1.556,-306.22,-5.43,-128.48,-48.38,-7.4
2,jab,651047379.0,21.174,-10.965,-3.903,-331.34,5.3,-90.55,-51.23,-8.45
2,jab,651052379.0,19.723,-12.373,-5.995,-347.44,14.39,-60.67,-54.22,-9.31
2,jab,651057379.0,17.578,-13.829,-7.762,-346.77,20.61,-33.48,-57.23,-9.98
2,jab,651062379.0,15.567,-15.562,-9.811,-324.94,23.35,-14.88,-60.12,-10.47
2,jab,651067379.0,13.537,-17.056,-11.358,-292.13,27.93,3.78,-62.82,-10.79
2,jab,651072379.0,11.875,-17.324,-12.948,-250.67,31.4,21.22,-65.33,-11.0
2,jab,651077379.0,9.998,-18.22,-13.427,-197.56,28.35,32.74,-67.52,-11.12
2,jab,651082379.0,9.51,-18.838,-14.533,-128.54,18.6,33.41,-69.35,-11.24
2,jab,651087379.0,9.625,-17.827,-13.963,-67.99,13.9,40.98,-70.86,-11.41
2,jab,651092379.0,10.041,-17.698,-13.719,-11.4,4.88,46.22,-72.05,-11.64
2,jab,651097379.0,10.645,-17.473,-12.488,46.4,-6.16,48.29,-72.89,-11.96
2,jab,651102379.0,11.358,-16.683,-11.176,94.82,-19.94,51.65,-73.45,-12.41
2,jab,651107379.0,12.148,-15.16,-9.764,133.29,-35.43,55.73,-73.78,-13.02
2,jab,651112379.0,13.915,-13.925,-7.58,162.38,-34.21,65.55,-73.88,-13.75
2,jab,651117379.0,15.423,-12.167,-6.852,177.5,-50.55,75.06,-73.92,-14.68
2,jab,651122379.0,16.539,-10.63,-4.946,187.93,-44.15,89.7,-73.82,-15.69
2,jab,651127379.0,17.554,-9.242,-3.615,190.0,-35.49,105.06,-73.64,-16.77
2,jab,651132379.0,17.966,-7.968,-2.777,184.7,-26.28,119.33,-73.45,-17.86
2,jab,651137379.0,17.617,-6.852,-2.064,173.11,-16.89,131.77,-73.27,-18.94
2,jab,651142379.0,16.951,-5.856,-1.604,160.12,-8.11,143.78,-73.12,-20.01
2,jab,651147379.0,15.893,-5.076,-1.168,146.04,-3.17,153.11,-73.0,-21.06
2,jab,651152379.0,14.868,-4.597,-0.919,133.23,-2.8,158.11,-72.92,-22.1
2,jab,651157379.0,13.743,-4.065,-0.709,121.4,-6.95,161.83,-72.86,-23.16
2,jab,651162379.0,12.694,-3.371,-0.709,110.43,-15.85,162.56,-72.9,-24.27
2,jab,651167379.0,11.784,-2.725,-0.417,102.93,-24.51,160.18,-72.91,-25.44
2,jab,651172379.0,11.047,-2.342,-0.33,96.34,-33.29,155.18,-72.94,-26.65
2,jab,651177379.0,10.4,-1.915,-0.278,89.51,-41.46,146.46,-73.01,-27.91
2,jab,651182379.0,9.577,-1.748,-0.038,85.49,-48.48,139.33,-72.96,-29.19
2,jab,651187379.0,8.59,-2.016,0.546,82.68,-48.72,132.62,-72.59,-30.37
2,jab,651192379.0,7.752,-2.715,0.9,79.51,-46.16,124.7,-72.18,-31.38
2,jab,651197379.0,7.025,-3.275,1.216,79.51,-40.85,116.83,-71.74,-32.22
2,jab,651202379.0,6.23,-3.625,1.805,82.2,-32.26,111.4,-71.17,-32.88
2,jab,651207379.0,5.229,-3.97,2.14,88.11,-23.96,109.09,-70.55,-33.32
2,jab,651212379.0,4.08,-4.592,2.696,93.6,-16.22,108.05,-69.87,-33.48
2,jab,651217379.0,3.285,-4.865,2.873,97.5,-10.55,105.18,-69.19,-33.47
2,jab,651222379.0,2.729,-4.879,3.069,97.44,-7.87,102.68,-68.48,-33.35
2,jab,651227379.0,2.136,-4.621,3.007,92.32,-14.7,99.27,-67.8,-33.17
2,jab,651232379.0,1.331,-4.386,3.567,85.61,-18.29,95.67,-67.04,-32.87
2,jab,651237379.0,0.694,-4.405,3.979,78.41,-24.57,91.1,-66.27,-32.46
2,jab,651242379.0,0.22,-4.769,4.444,69.45,-27.13,86.46,-65.55,-31.98
2,jab,651247379.0,-0.192,-5.138,4.827,57.38,-30.73,81.95,-64.89,-31.46
2,jab,651252379.0,-0.503,-5.353,4.951,43.96,-36.22,77.56,-64.32,-30.93
2,jab,651257379.0,-0.67,-5.219,5.042,31.59,-42.32,73.05,-63.8,-30.42
2,jab,651262379.0,-0.766,-5.215,5.157,22.01,-46.46,69.7,-63.32,-29.92
2,jab,651267379.0,-0.967,-5.411,5.397,14.63,-47.5,67.87,-62.89,-29.41
2,jab,651272379.0,-1.245,-5.88,5.387,7.01,-45.24,68.23,-62.55,-28.86
2,jab,651277379.0,-1.499,-6.345,5.267,-1.52,-41.59,68.96,-62.31,-28.28
2,jab,651282379.0,-1.767,-6.541,4.946,-6.65,-38.41,69.94,-62.15,-27.66
2,jab,651287379.0,-1.647,-6.843,4.697,-10.18,-34.02,67.87,-62.07,-27.05
2,jab,651292379.0,-1.719,-7.005,4.554,-11.83,-32.68,64.27,-62.03,-26.44
2,jab,651297379.0,-1.891,-7.168,4.487,-13.48,-32.93,62.13,-62.01,-25.82
2,jab,651302379.0,-2.16,-7.283,4.305,-16.77,-34.94,61.65,-62.04,-25.19
2,jab,651307379.0,-2.198,-7.503,4.171,-21.28,-37.74,61.89,-62.12,-24.58
2,jab,651312379.0,-2.073,-7.695,3.96,-26.4,-40.73,61.16,-62.27,-24.02
2,jab,651317379.0,-1.925,-7.709,3.974,-30.49,-44.02,59.82,-62.42,-23.5
2,jab,651322379.0,-1.944,-7.705,3.955,-33.6,-49.76,58.84,-62.6,-23.03
2,jab,651327379.0,-2.083,-7.724,3.883,-37.44,-52.87,58.72,-62.79,-22.55
2,jab,651332379.0,-2.03,-7.81,3.855,-42.87,-54.7,58.6,-63.02,-22.11
2,jab,651337379.0,-1.992,-7.757,3.692,-50.79,-58.05,57.8,-63.3,-21.69
2,jab,651342379.0,-2.116,-7.623,3.745,-58.6,-61.89,57.99,-63.6,-21.28
2,jab,651347379.0,-2.15,-7.647,3.768,-65.55,-63.96,58.23,-63.93,-20.88
2,jab,651352379.0,-2.069,-7.901,3.668,-71.4,-62.68,57.87,-64.3,-20.51
2,jab,651357379.0,-1.939,-8.145,3.577,-75.43,-58.17,56.46,-64.71,-20.13
2,jab,651362379.0,-1.772,-8.461,3.491,-75.98,-49.82,55.67,-65.14,-19.76
2,jab,651367379.0,-1.561,-8.772,3.452,-72.99,-38.35,55.55,-65.56,-19.36
2,jab,651372379.0,-1.551,-9.117,3.462,-66.28,-25.98,55.98,-65.96,-18.92
2,jab,651377379.0,-1.566,-9.376,3.371,-56.52,-13.78,55.73,-66.32,-18.43
2,jab,651382379.0,-1.762,-9.51,3.448,-45.49,-1.77,55.43,-66.62,-17.87
2,jab,651387379.0,-1.824,-9.567,3.467,-37.13,9.88,53.78,-66.87,-17.26
2,jab,651392379.0,-1.92,-9.419,3.194,-32.99,17.07,52.26,-67.12,-16.62
2,jab,651397379.0,-2.399,-9.409,3.036,-31.83,25.43,54.09,-67.38,-15.89
2,jab,651402379.0,-3.103,-9.62,2.921,-33.35,28.66,56.59,-67.66,-15.09
2,jab,651407379.0,-3.883,-9.869,2.691,-35.37,27.87,57.87,-67.97,-14.23
2,jab,651412379.0,-4.568,-10.099,2.634,-36.1,26.04,57.99,-68.3,-13.35
2,jab,651417379.0,-5.018,-10.209,2.643,-35.0,22.56,55.61,-68.61,-12.46
2,jab,651422379.0,-5.114,-10.228,2.614,-31.71,19.21,51.77,-68.91,-11.6
2,jab,651427379.0,-5.224,-10.247,2.806,-27.2,14.76,48.96,-69.16,-10.77
2,jab,651432379.0,-5.411,-10.156,3.084,-22.13,11.83,45.55,-69.34,-9.96
2,jab,651437379.0,-5.535,-10.113,3.338,-15.3,10.18,41.04,-69.47,-9.16
2,jab,651442379.0,-5.406,-10.046,3.596,-7.07,10.0,34.21,-69.52,-8.39
2,jab,651447379.0,-5.095,-9.907,3.859,1.77,10.98,26.16,-69.49,-7.66
2,jab,651452379.0,-4.86,-9.783,4.204,10.24,13.41,17.26,-69.39,-6.95
2,jab,651457379.0,-4.755,-9.716,4.573,17.99,16.52,7.74,-69.21,-6.25
2,jab,651462379.0,-4.602,-9.764,4.875,24.51,19.94,-1.52,-68.97,-5.57
2,jab,651467379.0,-4.439,-9.831,5.234,28.84,24.76,-9.76,-68.69,-4.9
2,jab,651472379.0,-4.204,-9.917,5.545,31.22,28.54,-16.1,-68.38,-4.26
2,jab,651477379.0,-3.883,-10.099,5.904,32.2,30.98,-19.21,-68.05,-3.65
3,jab,655347379.0,0.996,-1.398,10.783,-32.56,-1.4,-33.6,-9.89,-19.21
3,jab,655352379.0,1.269,-1.508,10.793,-35.37,-9.51,-32.68,-10.02,-19.01
3,jab,655357379.0,1.604,-1.719,10.783,-36.28,-17.5,-29.7,-10.18,-18.88
3,jab,655362379.0,2.212,-1.887,11.009,-36.1,-23.54,-25.73,-10.35,-18.84
3,jab,655367379.0,2.725,-1.781,11.353,-35.91,-26.52,-21.04,-10.5,-18.86
3,jab,655372379.0,2.998,-1.523,11.803,-35.79,-25.61,-17.5,-10.61,-18.89
3,jab,655377379.0,2.974,-1.317,12.234,-37.62,-21.04,-16.65,-10.71,-18.89
3,jab,655382379.0,2.71,-1.039,12.617,-40.49,-13.66,-17.74,-10.78,-18.82
3,jab,655387379.0,2.342,-1.149,12.756,-44.02,-4.51,-18.29,-10.89,-18.68
3,jab,655392379.0,1.542,-0.718,13.13,-48.54,1.59,-24.15,-10.97,-18.43
3,jab,655397379.0,0.555,-0.785,13.508,-50.18,7.56,-26.77,-11.06,-18.07
3,jab,655402379.0,-0.517,-0.757,14.107,-50.98,12.26,-28.48,-11.15,-17.61
3,jab,655407379.0,-1.781,-0.982,14.7,-51.83,14.45,-29.45,-11.26,-17.04
3,jab,655412379.0,-3.021,-0.972,15.457,-54.57,14.45,-29.94,-11.37,-16.41
3,jab,655417379.0,-4.166,-0.915,16.017,-57.68,13.17,-28.96,-11.49,-15.73
3,jab,655422379.0,-5.109,-0.838,16.52,-59.09,12.01,-27.68,-11.61,-15.01
3,jab,655427379.0,-5.928,-0.699,16.917,-59.57,10.24,-27.01,-11.72,-14.28
3,jab,655432379.0,-6.431,-0.369,16.999,-59.27,6.1,-28.48,-11.8,-13.55
3,jab,655437379.0,-6.737,0.335,16.783,-59.39,0.0,-31.16,-11.83,-12.84
3,jab,655442379.0,-6.761,1.178,16.367,-58.54,-6.89,-36.77,-11.8,-12.17
3,jab,655447379.0,-6.709,2.006,15.586,-57.07,-13.29,-45.18,-11.7,-11.53
3,jab,655452379.0,-6.086,2.672,14.461,-55.3,-17.8,-53.9,-11.52,-10.93
3,jab,655457379.0,-5.205,3.251,13.015,-51.77,-22.44,-65.0,-11.27,-10.4
3,jab,655462379.0,-4.113,3.855,11.516,-46.95,-27.74,-77.38,-10.9,-9.95
3,jab,655467379.0,-2.974,4.573,9.941,-41.16,-33.35,-88.41,-10.39,-9.61
3,jab,655472379.0,-1.231,5.602,8.14,-36.46,-40.06,-99.02,-9.67,-9.48
3,jab,655477379.0,0.239,6.23,6.704,-35.12,-37.56,-108.05,-8.79,-9.5
3,jab,655482379.0,1.896,7.001,4.788,-37.44,-38.9,-117.32,-7.69,-9.75
3,jab,655487379.0,4.606,7.283,2.069,-41.46,-43.48,-127.74,-6.25,-10.4
3,jab,655492379.0,6.814,7.12,-0.326,-44.57,-55.0,-142.07,-4.5,-11.33
3,jab,655497379.0,8.121,6.929,-2.418,-45.67,-72.2,-151.77,-2.44,-12.42
3,jab,655502379.0,9.941,6.33,-4.884,-45.06,-89.76,-158.72,-0.06,-13.63
3,jab,655507379.0,11.32,6.096,-6.167,-46.22,-103.84,-161.65,2.42,-14.92
3,jab,655512379.0,13.704,6.239,-8.064,-47.38,-124.51,-163.96,4.98,-16.3
3,jab,655517379.0,16.127,5.871,-9.261,-53.17,-149.94,-166.59,7.58,-17.82
3,jab,655522379.0,19.091,5.248,-9.85,-59.45,-172.62,-174.82,10.17,-19.51
3,jab,655527379.0,21.581,3.907,-9.519,-56.16,-186.46,-188.41,12.85,-21.32
3,jab,655532379.0,23.516,2.715,-8.557,-42.5,-193.35,-203.05,15.63,-23.22
3,jab,655537379.0,25.24,1.82,-7.35,-24.57,-199.45,-212.32,18.52,-25.2
3,jab,655542379.0,25.996,1.35,-5.607,-9.09,-203.78,-216.22,21.43,-27.25
3,jab,655547379.0,26.274,0.742,-3.438,-2.5,-204.94,-218.41,24.35,-29.35
3,jab,655552379.0,26.212,-0.235,-1.159,-3.23,-199.63,-216.65,20.47,-31.49
3,jab,655557379.0,25.972,-1.475,0.962,-9.88,-186.95,-205.18,18.88,-33.5
3,jab,655562379.0,25.857,-2.859,2.605,-21.34,-166.22,-184.39,17.44,-35.28
3,jab,655567379.0,25.273,-4.247,4.659,-35.85,-125.43,-154.45,16.07,-36.71
3,jab,655572379.0,24.095,-5.976,5.416,-41.28,-99.88,-126.22,14.59,-37.89
3,jab,655577379.0,22.946,-7.072,5.516,-47.99,-80.67,-107.56,13.02,-38.9
3,jab,655582379.0,21.605,-7.934,5.128,-49.33,-68.35,-90.18,11.38,-39.79
3,jab,655587379.0,21.074,-9.055,5.1,-41.65,-44.88,-72.93,9.74,-40.48
3,jab,655592379.0,19.824,-9.457,5.334,-36.83,-18.66,-53.05,8.15,-40.99
3,jab,655597379.0,19.283,-9.318,5.152,-23.54,2.93,-33.96,6.65,-41.38
3,jab,655602379.0,19.106,-8.724,4.836,-9.57,19.27,-16.59,5.25,-41.71
3,jab,655607379.0,18.651,-7.805,4.659,2.26,30.24,-2.62,3.97,-42.0
3,jab,655612379.0,18.421,-6.349,4.602,8.17,42.38,12.07,2.85,-42.3
3,jab,655617379.0,17.889,-4.539,4.386,9.45,54.15,28.05,1.92,-42.6
3,jab,655622379.0,17.248,-3.117,4.118,9.57,68.05,46.22,1.19,-42.88
3,jab,655627379.0,16.716,-1.695,3.366,4.76,80.43,59.82,0.65,-43.17
3,jab,655632379.0,16.017,-0.431,2.591,-1.77,87.87,69.88,0.44,-43.49
3,jab,655637379.0,15.179,0.469,1.729,-7.13,87.44,79.09,0.7,-43.86
3,jab,655642379.0,14.801,1.255,0.479,-8.6,80.12,86.04,2.03,-44.28
3,jab,655647379.0,14.787,1.652,-0.541,-5.18,68.48,89.7,4.12,-44.73
3,jab,655652379.0,14.614,2.38,-1.211,1.28,60.67,95.12,6.39,-45.13
3,jab,655657379.0,14.935,3.065,-2.006,7.56,57.99,96.28,8.76,-45.47
3,jab,655662379.0,15.012,3.879,-2.729,11.1,59.09,92.74,11.14,-45.72
3,jab,655667379.0,15.06,4.166,-3.16,15.37,65.18,87.5,13.54,-45.9
3,jab,655672379.0,14.935,3.831,-3.299,19.82,79.82,84.39,15.98,-46.02
3,jab,655677379.0,14.456,3.371,-3.395,25.67,99.57,85.43,18.49,-46.04
3,jab,655682379.0,13.479,3.127,-3.366,31.83,119.94,90.24,21.02,-45.96
3,jab,655687379.0,12.306,3.05,-3.385,39.15,133.96,96.95,23.55,-45.78
3,jab,655692379.0,10.659,2.978,-3.361,45.55,139.94,103.35,26.07,-45.52
3,jab,655697379.0,9.117,2.878,-3.218,53.48,141.4,104.21,28.58,-45.21
3,jab,655702379.0,7.427,2.777,-2.873,63.11,138.66,100.61,31.03,-44.86
3,jab,655707379.0,5.895,2.686,-2.318,72.38,133.66,96.04,33.38,-44.49
3,jab,655712379.0,4.76,2.849,-1.8,82.8,123.84,91.52,35.57,-44.08
3,jab,655717379.0,3.955,3.529,-1.173,89.88,112.07,87.2,37.46,-43.59
3,jab,655722379.0,3.749,4.324,-0.144,92.62,98.96,81.71,39.01,-43.05
3,jab,655727379.0,3.615,5.234,1.302,88.35,85.49,75.85,40.18,-42.45
3,jab,655732379.0,3.5,5.665,2.643,78.23,74.21,68.48,41.06,-41.82
3,jab,655737379.0,3.515,5.66,3.792,65.79,66.28,59.94,41.68,-41.2
3,jab,655742379.0,3.5,5.392,4.726,52.2,58.66,53.11,42.08,-40.61
3,jab,655747379.0,3.208,4.966,5.646,39.57,51.22,48.54,42.26,-40.01
3,jab,655752379.0,2.715,4.496,6.45,29.51,46.04,45.61,42.26,-39.37
3,jab,655757379.0,2.591,3.414,6.977,23.41,45.12,46.16,42.05,-38.73
3,jab,655762379.0,2.749,2.705,7.508,16.16,46.28,43.35,41.68,-38.11
3,jab,655767379.0,2.567,1.978,7.949,9.27,47.26,43.72,41.17,-37.46
3,jab,655772379.0,2.533,1.427,8.255,4.7,48.05,43.96,40.57,-36.81
3,jab,655777379.0,2.217,0.934,8.657,3.05,47.32,43.29,39.9,-36.13
3,jab,655782379.0,2.385,-0.172,8.801,4.94,49.21,43.05,39.1,-35.47
3,jab,655787379.0,2.322,-0.393,8.782,6.28,46.77,38.66,38.3,-34.83
3,jab,655792379.0,2.025,-0.69,8.873,10.12,44.27,37.32,37.49,-34.17
3,jab,655797379.0,2.179,-0.728,8.854,15.67,41.65,36.34,36.73,-33.56
3,jab,655802379.0,2.586,-0.594,8.882,21.77,35.91,33.9,36.02,-33.03
3,jab,655807379.0,2.533,-0.201,9.194,26.4,27.2,31.16,35.4,-32.55
3,jab,655812379.0,2.586,-0.508,9.495,29.88,19.63,31.77,34.78,-32.11
3,jab,655817379.0,2.868,-0.445,9.826,25.85,10.37,27.32,34.16,-31.74
3,jab,655822379.0,2.868,-0.522,10.257,20.24,0.85,26.34,33.52,-31.41
3,jab,655827379.0,3.141,-0.546,10.693,16.22,-5.67,28.05,32.87,-31.14
3,jab,655832379.0,3.582,-0.484,10.994,11.34,-10.98,30.37,32.22,-30.93
3,jab,655837379.0,3.759,-0.134,11.377,7.26,-15.0,31.95,31.59,-30.75
3,jab,655842379.0,4.477,-0.843,11.952,1.77,-11.46,30.37,30.89,-30.6
3,jab,655847379.0,4.865,-1.207,12.076,-6.95,-8.29,21.95,30.12,-30.47
3,jab,655852379.0,4.956,-2.064,12.215,-11.46,-1.95,16.52,29.27,-30.3
3,jab,655857379.0,5.186,-2.94,12.225,-11.89,7.56,12.32,28.36,-30.11
3,jab,655862379.0,5.353,-3.448,12.076,-7.32,18.84,7.62,27.44,-29.87
3,jab,655867379.0,5.507,-3.534,11.823,-0.98,29.27,3.72,26.55,-29.62
3,jab,655872379.0,5.545,-3.639,11.478,5.85,36.71,4.7,25.7,-29.34
3,jab,655877379.0,5.636,-4.032,11.401,7.8,40.91,5.67,24.83,-29.05
3,jab,655882379.0,5.31,-4.391,11.071,6.4,35.3,7.2,23.93,-28.78
3,jab,655887379.0,5.152,-4.271,10.932,2.44,30.79,8.72,23.04,-28.52
3,jab,655892379.0,5.138,-4.118,10.817,1.28,29.39,14.21,22.17,-28.29
3,jab,655897379.0,5.215,-4.013,10.702,0.98,27.44,20.61,21.32,-28.08
3,jab,655902379.0,4.817,-3.864,10.788,3.54,23.05,27.38,20.52,-27.86
3,jab,655907379.0,4.429,-4.013,11.08,4.33,17.26,30.67,19.73,-27.63
3,jab,655912379.0,3.936,-3.639,11.224,4.09,10.0,31.77,19.0,-27.4
3,jab,655917379.0,3.323,-3.443,11.473,5.98,5.91,35.73,18.31,-27.13
3,jab,655922379.0,2.998,-3.146,11.497,6.71,5.12,38.78,17.67,-26.85
3,jab,655927379.0,2.634,-2.854,11.521,7.2,6.46,39.94,17.08,-26.53
3,jab,655932379.0,2.131,-2.705,11.679,7.99,6.4,39.09,16.51,-26.17
3,jab,655937379.0,1.748,-2.456,11.669,10.06,2.56,37.56,15.99,-25.8
3,jab,655942379.0,1.465,-2.27,11.588,11.46,-3.48,36.46,15.51,-25.44
4,jab,659937379.0,5.32,-1.729,9.117,-3.05,2.99,2.68,-10.24,-29.47
4,jab,659942379.0,5.325,-1.7,9.17,-3.41,2.99,3.72,-10.26,-29.46
4,jab,659947379.0,5.31,-1.671,9.189,-3.72,3.11,4.7,-10.28,-29.45
4,jab,659952379.0,5.291,-1.671,9.232,-4.27,2.68,5.43,-10.3,-29.44
4,jab,659957379.0,5.243,-1.7,9.266,-4.45,2.01,5.73,-10.32,-29.42
4,jab,659962379.0,5.191,-1.733,9.352,-4.33,2.07,5.37,-10.35,-29.39
4,jab,659967379.0,5.176,-1.69,9.39,-3.84,3.05,4.33,-10.36,-29.36
4,jab,659972379.0,5.124,-1.681,9.424,-3.17,4.15,3.29,-10.37,-29.32
4,jab,659977379.0,5.037,-1.709,9.538,-2.38,5.24,2.01,-10.38,-29.25
4,jab,659982379.0,4.927,-1.753,9.519,-2.2,6.34,1.28,-10.39,-29.18
4,jab,659987379.0,4.827,-1.714,9.673,-1.77,7.2,0.98,-10.39,-29.08
4,jab,659992379.0,4.731,-1.767,9.72,-1.95,7.56,1.1,-10.4,-28.98
4,jab,659997379.0,4.568,-1.791,9.864,-2.07,7.5,1.59,-10.41,-28.85
4,jab,660002379.0,4.453,-1.906,10.032,-2.2,7.8,1.95,-10.43,-28.7
4,jab,660007379.0,4.286,-2.021,10.18,-2.13,8.41,1.77,-10.45,-28.54
4,jab,660012379.0,4.108,-2.164,10.448,-0.98,8.54,1.46,-10.48,-28.35
4,jab,660017379.0,3.821,-2.274,10.707,1.34,8.84,0.3,-10.51,-28.12
4,jab,660022379.0,3.639,-2.342,11.095,4.21,9.09,-1.34,-10.51,-27.87
4,jab,660027379.0,3.405,-2.294,11.459,6.65,8.29,-3.6,-10.5,-27.6
4,jab,660032379.0,3.4,-2.222,11.65,10.85,5.67,-5.3,-10.45,-27.34
4,jab,660037379.0,3.112,-2.198,12.622,14.15,2.68,-8.41,-10.37,-27.05
4,jab,660042379.0,3.199,-2.16,12.9,13.23,0.61,-5.61,-10.29,-26.78
4,jab,660047379.0,2.935,-1.729,13.733,12.44,-1.65,-12.62,-10.16,-26.49
4,jab,660052379.0,2.346,-1.508,14.782,17.74,-0.91,-8.9,-9.99,-26.15
4,jab,660057379.0,2.629,-1.317,15.332,19.7,2.13,-7.87,-9.79,-25.81
4,jab,660062379.0,2.595,-0.996,15.936,18.66,3.29,-9.7,-9.58,-25.46
4,jab,660067379.0,2.926,-1.192,16.463,13.23,4.27,-10.85,-9.4,-25.13
4,jab,660072379.0,2.093,-0.225,17.329,7.38,2.56,-14.27,-9.19,-24.75
4,jab,660077379.0,1.523,-0.101,18.124,4.63,7.68,-10.61,-8.99,-24.32
4,jab,660082379.0,1.144,-0.048,18.311,0.06,14.21,-5.67,-8.82,-23.83
4,jab,660087379.0,0.824,-0.402,18.335,-9.27,20.79,-2.32,-8.71,-23.31
4,jab,660092379.0,-0.292,0.043,18.392,-20.85,23.11,-1.34,-8.64,-22.71
4,jab,660097379.0,-1.638,-0.139,18.579,-28.6,26.46,4.02,-8.61,-22.02
4,jab,660102379.0,-2.825,-0.283,18.646,-33.35,30.85,8.54,-8.62,-21.26
4,jab,660107379.0,-3.917,-0.364,18.589,-36.52,34.15,10.67,-8.65,-20.43
4,jab,660112379.0,-5.023,-0.211,18.79,-36.95,34.88,10.18,-8.67,-19.55
4,jab,660117379.0,-6.292,0.168,19.264,-35.61,33.78,8.48,-8.66,-18.63
4,jab,660122379.0,-7.633,0.939,19.805,-32.44,32.13,8.05,-8.59,-17.68
4,jab,660127379.0,-8.72,1.8,20.332,-30.49,32.32,9.45,-8.47,-16.71
4,jab,660132379.0,-9.735,2.571,20.466,-30.73,32.87,11.83,-8.31,-15.71
4,jab,660137379.0,-10.472,3.045,20.336,-33.96,32.8,11.34,-8.14,-14.69
4,jab,660142379.0,-10.554,3.242,19.805,-36.95,33.05,6.52,-7.97,-13.68
4,jab,660147379.0,-10.266,3.338,19.087,-38.05,32.93,-3.11,-7.8,-12.69
4,jab,660152379.0,-10.099,3.414,18.301,-37.93,31.83,-15.91,-7.62,-11.71
4,jab,660157379.0,-9.965,3.16,17.186,-37.44,31.28,-30.24,-7.44,-10.73
4,jab,660162379.0,-9.615,2.82,15.998,-35.85,31.16,-45.55,-7.27,-9.75
4,jab,660167379.0,-9.371,2.298,14.834,-36.04,31.4,-60.37,-7.12,-8.76
4,jab,660172379.0,-8.447,1.853,12.881,-34.39,30.49,-72.87,-6.98,-7.77
4,jab,660177379.0,-7.796,1.585,11.176,-31.89,25.67,-84.82,-6.84,-6.8
4,jab,660182379.0,-7.274,1.326,9.424,-29.09,17.32,-92.99,-6.68,-5.83
4,jab,660187379.0,-6.527,1.188,7.638,-24.63,5.55,-99.33,-6.49,-4.88
4,jab,660192379.0,-5.531,0.953,5.947,-18.05,-11.16,-105.55,-6.27,-3.99
4,jab,660197379.0,-4.271,0.833,4.219,-10.24,-30.73,-108.66,-5.97,-3.16
4,jab,660202379.0,-2.907,0.618,2.653,-3.11,-51.22,-112.32,-5.61,-2.42
4,jab,660207379.0,-1.164,0.718,1.226,2.32,-69.76,-116.77,-4.88,-1.92
4,jab,660212379.0,0.704,1.006,0.096,7.13,-84.88,-118.23,-3.05,-3.0
4,jab,660217379.0,2.413,1.556,-0.824,13.35,-95.98,-116.95,-0.57,-4.49
4,jab,660222379.0,4.228,2.145,-1.935,17.99,-102.8,-115.12,2.17,-6.01
4,jab,660227379.0,5.756,2.389,-2.844,18.35,-105.61,-113.9,5.02,-7.55
4,jab,660232379.0,7.221,3.457,-3.438,14.82,-102.38,-115.85,7.69,-9.02
4,jab,660237379.0,8.648,4.314,-4.448,10.79,-115.06,-122.38,10.3,-10.49
4,jab,660242379.0,10.305,4.841,-5.128,4.63,-124.21,-126.46,12.85,-12.0
4,jab,660247379.0,11.77,5.823,-5.966,-2.13,-135.06,-135.61,15.3,-13.52
4,jab,660252379.0,13.336,6.847,-6.8,-12.38,-147.2,-146.83,17.63,-15.05
4,jab,660257379.0,15.04,7.853,-7.451,-23.66,-158.35,-156.1,19.83,-16.61
4,jab,660262379.0,16.554,8.442,-7.824,-34.21,-171.71,-163.05,21.92,-18.23
4,jab,660267379.0,17.832,8.758,-8.083,-44.02,-189.45,-170.98,23.92,-19.92
4,jab,660272379.0,19.154,8.538,-7.973,-55.49,-207.44,-178.78,25.83,-21.71
4,jab,660277379.0,20.332,7.513,-7.551,-67.32,-222.99,-185.24,27.69,-23.61
4,jab,660282379.0,21.773,6.072,-6.737,-79.7,-231.89,-187.62,29.51,-25.62
4,jab,660287379.0,22.922,4.18,-5.756,-93.23,-234.33,-185.43,31.34,-27.71
4,jab,660292379.0,23.525,2.049,-4.937,-107.07,-232.2,-178.6,33.34,-29.84
4,jab,660297379.0,23.602,-0.306,-4.276,-120.43,-224.88,-169.02,28.56,-31.94
4,jab,660302379.0,23.051,-2.614,-3.596,-128.48,-212.38,-158.41,24.48,-33.92
4,jab,660307379.0,22.477,-4.281,-2.739,-129.45,-197.56,-146.04,20.9,-35.76
4,jab,660312379.0,21.921,-6.689,-1.968,-122.8,-182.56,-132.07,17.76,-37.39
4,jab,660317379.0,21.931,-8.03,-0.895,-108.54,-161.34,-122.87,14.94,-38.82
4,jab,660322379.0,21.624,-9.055,0.737,-87.93,-142.56,-111.46,12.51,-40.09
4,jab,660327379.0,21.562,-9.491,2.72,-64.57,-117.99,-95.55,10.46,-41.17
4,jab,660332379.0,21.696,-8.93,5.564,-41.65,-67.99,-70.0,8.88,-41.97
4,jab,660337379.0,21.323,-9.103,7.001,-31.4,-50.37,-39.21,7.5,-42.61
4,jab,660342379.0,22.625,-8.437,9.017,-21.22,-13.17,-13.78,6.39,-43.05
4,jab,660347379.0,21.629,-6.986,10.405,-19.33,-6.22,9.45,5.49,-43.42
4,jab,660352379.0,22.055,-5.966,10.606,-27.07,-6.1,28.48,4.66,-43.8
4,jab,660357379.0,22.017,-4.97,10.812,-40.0,10.49,46.4,3.88,-44.1
4,jab,660362379.0,21.849,-4.089,10.309,-55.55,30.18,67.56,3.09,-44.34
4,jab,660367379.0,21.945,-3.347,9.337,-74.33,60.43,97.99,2.27,-44.47
4,jab,660372379.0,21.553,-2.806,8.317,-89.57,97.44,127.74,1.42,-44.46
4,jab,660377379.0,20.638,-2.179,7.063,-100.24,126.95,152.8,0.55,-44.35
4,jab,660382379.0,19.733,-1.609,5.483,-105.61,143.66,168.23,-0.3,-44.24
4,jab,660387379.0,18.684,-0.972,4.061,-104.88,152.01,174.27,-1.08,-44.16
4,jab,660392379.0,17.832,-0.421,2.629,-99.27,149.94,171.95,-1.73,-44.17
4,jab,660397379.0,16.965,-0.01,1.599,-89.82,147.5,163.66,-2.14,-44.25
4,jab,660402379.0,16.056,0.455,0.627,-78.72,143.05,151.71,-1.76,-44.41
4,jab,660407379.0,15.012,0.843,-0.057,-66.71,135.37,138.11,-0.18,-44.6
4,jab,660412379.0,14.284,1.087,-1.053,-57.5,121.52,123.54,2.23,-44.79
4,jab,660417379.0,13.494,0.986,-1.81,-47.8,106.28,107.26,4.98,-45.0
4,jab,660422379.0,12.857,1.48,-2.179,-35.37,91.22,89.82,7.62,-45.22
4,jab,660427379.0,12.924,0.929,-2.423,-20.3,81.89,82.93,10.55,-45.49
4,jab,660432379.0,13.882,0.57,-2.753,-8.17,73.66,71.77,13.66,-45.79
4,jab,660437379.0,14.313,0.225,-2.61,4.63,72.99,65.98,16.91,-46.11
4,jab,660442379.0,13.968,0.479,-2.203,16.77,76.04,64.76,20.01,-46.43
4,jab,660447379.0,13.374,0.637,-1.772,27.32,82.01,71.22,22.95,-46.74
4,jab,660452379.0,12.479,0.718,-1.365,33.78,93.11,82.74,25.7,-47.01
4,jab,660457379.0,11.454,1.231,-1.197,32.99,105.91,94.51,28.03,-47.18
4,jab,660462379.0,10.233,1.513,-0.9,26.65,114.15,106.1,30.02,-47.28
4,jab,660467379.0,8.983,1.484,-0.479,19.94,114.39,112.99,31.67,-47.38
4,jab,660472379.0,7.542,1.269,-0.091,17.99,109.21,112.74,33.01,-47.5
4,jab,660477379.0,6.249,1.034,0.359,21.59,101.28,106.59,33.87,-47.66
4,jab,660482379.0,5.143,0.972,0.876,29.51,89.76,95.98,34.3,-47.78
4,jab,660487379.0,4.219,1.255,1.379,40.85,77.68,81.95,34.66,-47.76
4,jab,660492379.0,3.448,1.566,2.04,52.8,67.01,65.3,34.98,-47.55
4,jab,660497379.0,3.065,1.724,2.562,63.9,59.76,45.55,35.27,-47.2
4,jab,660502379.0,2.978,1.82,3.203,73.29,55.06,25.0,35.51,-46.76
4,jab,660507379.0,2.993,1.7,3.788,80.37,52.38,6.89,35.68,-46.29
4,jab,660512379.0,3.275,1.499,4.3,85.0,50.55,-6.22,35.77,-45.83
4,jab,660517379.0,3.601,1.408,5.042,87.99,48.96,-11.89,35.8,-45.36
4,jab,660522379.0,3.61,1.408,5.756,86.95,47.68,-9.7,35.78,-44.85
4,jab,660527379.0,3.438,1.518,6.397,80.67,48.29,-2.62,35.73,-44.27
4,jab,660532379.0,3.299,1.532,6.732,69.57,50.12,6.1,35.61,-43.65
5,jab,664467379.0,-0.527,-9.347,3.979,-4.94,2.68,1.83,-66.86,3.58
5,jab,664472379.0,-0.555,-9.352,4.017,-5.37,2.74,1.71,-66.88,3.58
5,jab,664477379.0,-0.709,-9.299,3.979,-6.16,2.01,2.01,-66.91,3.6
5,jab,664482379.0,-0.785,-9.309,3.95,-6.46,1.65,2.07,-66.95,3.62
5,jab,664487379.0,-0.848,-9.261,3.974,-6.77,1.22,1.71,-66.98,3.65
5,jab,664492379.0,-0.948,-9.218,3.931,-6.4,0.06,1.77,-67.01,3.69
5,jab,664497379.0,-0.972,-9.189,4.008,-5.85,-0.3,1.22,-67.02,3.73
5,jab,664502379.0,-1.02,-9.165,4.108,-5.73,-0.49,1.28,-67.03,3.76
5,jab,664507379.0,-1.12,-9.108,4.032,-5.98,-0.79,1.28,-67.04,3.81
5,jab,664512379.0,-1.197,-9.031,4.118,-5.98,-0.43,0.67,-67.04,3.87
5,jab,664517379.0,-1.341,-9.017,4.266,-6.59,0.0,0.61,-67.02,3.95
5,jab,664522379.0,-1.441,-8.921,4.357,-7.13,1.65,0.49,-67.0,4.04
5,jab,664527379.0,-1.537,-8.892,4.525,-8.41,3.6,-0.06,-66.96,4.15
5,jab,664532379.0,-1.805,-8.911,4.626,-10.06,4.45,0.18,-66.92,4.3
5,jab,664537379.0,-2.145,-8.964,4.75,-11.83,5.61,-0.3,-66.88,4.48
5,jab,664542379.0,-2.662,-9.098,4.779,-15.06,6.28,0.06,-66.86,4.71
5,jab,664547379.0,-3.17,-9.251,4.899,-18.05,8.35,0.06,-66.86,4.99
5,jab,664552379.0,-3.807,-9.471,5.004,-22.74,9.63,1.16,-66.87,5.33
5,jab,664557379.0,-4.525,-9.706,4.99,-28.29,8.23,3.17,-66.93,5.72
5,jab,664562379.0,-5.349,-10.008,5.085,-33.48,3.66,4.45,-67.02,6.13
5,jab,664567379.0,-6.009,-10.506,5.195,-37.56,-2.56,4.51,-67.13,6.54
5,jab,664572379.0,-6.814,-10.769,5.531,-39.88,-8.96,4.76,-67.24,6.95
5,jab,664577379.0,-7.144,-11.195,5.674,-41.34,-15.0,4.21,-67.36,7.33
5,jab,664582379.0,-7.58,-11.449,6.182,-39.82,-22.13,3.96,-67.44,7.68
5,jab,664587379.0,-8.092,-11.54,6.78,-39.21,-27.07,2.13,-67.48,8.02
5,jab,664592379.0,-8.164,-11.387,7.278,-34.63,-29.09,0.43,-67.45,8.34
5,jab,664597379.0,-8.097,-11.061,8.078,-27.07,-28.35,-3.29,-67.31,8.64
5,jab,664602379.0,-7.992,-10.597,8.973,-19.02,-25.85,-7.8,-67.05,8.94
5,jab,664607379.0,-8.236,-10.285,9.878,-12.74,-21.95,-12.56,-66.69,9.25
5,jab,664612379.0,-8.408,-9.811,10.707,-7.32,-14.76,-16.52,-66.25,9.6
5,jab,664617379.0,-8.499,-9.208,11.339,-5.49,-5.3,-18.6,-65.73,9.98
5,jab,664622379.0,-8.653,-8.643,11.861,-7.07,3.41,-19.27,-65.17,10.41
5,jab,664627379.0,-9.093,-8.25,12.282,-13.9,10.43,-18.35,-64.61,10.89
5,jab,664632379.0,-9.768,-8.212,12.641,-23.54,17.32,-15.49,-64.1,11.41
5,jab,664637379.0,-10.578,-8.442,12.809,-31.95,23.05,-11.34,-63.64,11.99
5,jab,664642379.0,-10.965,-8.801,12.766,-34.63,28.54,-6.83,-63.23,12.59
5,jab,664647379.0,-11.77,-9.553,12.847,-38.96,34.09,-3.05,-62.89,13.24
5,jab,664652379.0,-11.966,-9.773,12.699,-35.79,41.28,-7.32,-62.56,13.91
5,jab,664657379.0,-12.062,-10.247,12.871,-15.37,52.32,-11.34,-62.15,14.61
5,jab,664662379.0,-11.832,-10.491,13.015,11.77,67.99,-20.91,-61.63,15.36
5,jab,664667379.0,-11.09,-10.549,12.89,46.95,87.62,-36.16,-60.95,16.15
5,jab,664672379.0,-10.544,-10.19,12.972,86.04,108.72,-53.29,-60.07,17.02
5,jab,664677379.0,-9.716,-9.673,13.087,124.15,128.72,-71.04,-58.99,17.92
5,jab,664682379.0,-9.519,-8.461,13.235,159.7,145.55,-85.12,-57.68,18.9
5,jab,664687379.0,-9.299,-7.748,13.063,187.93,163.41,-91.71,-56.22,19.95
5,jab,664692379.0,-9.108,-6.594,12.407,203.6,178.05,-95.18,-54.66,21.09
5,jab,664697379.0,-9.055,-5.095,11.377,207.2,181.65,-95.0,-53.03,22.27
5,jab,664702379.0,-9.261,-3.587,10.405,196.59,179.02,-93.11,-51.39,23.51
5,jab,664707379.0,-9.347,-2.303,9.285,176.71,169.33,-90.49,-49.78,24.75
5,jab,664712379.0,-9.476,-1.336,7.944,147.07,152.26,-87.74,-48.25,26.0
5,jab,664717379.0,-9.323,-0.594,6.819,115.73,129.7,-84.51,-46.82,27.19
5,jab,664722379.0,-8.854,-0.244,5.703,82.87,100.43,-83.17,-45.52,28.28
5,jab,664727379.0,-8.03,-0.029,4.764,54.33,69.7,-85.79,-44.35,29.24
5,jab,664732379.0,-6.598,0.101,3.84,30.49,41.22,-93.17,-43.29,30.05
5,jab,664737379.0,-4.994,0.402,2.782,11.59,12.93,-100.61,-42.2,30.73
5,jab,664742379.0,-2.643,0.326,1.724,-1.65,-8.6,-106.52,-41.15,31.2
5,jab,664747379.0,-0.546,0.546,1.001,-8.17,-33.6,-112.13,-39.8,30.92
5,jab,664752379.0,2.203,0.388,-0.153,-13.05,-55.91,-112.62,-36.83,28.45
5,jab,664757379.0,4.611,0.522,-0.881,-18.05,-76.1,-111.28,-33.2,25.95
5,jab,664762379.0,7.561,0.584,-1.489,-22.93,-93.29,-108.9,-29.47,23.42
5,jab,664767379.0,10.424,1.211,-2.873,-32.01,-108.29,-107.62,-25.9,20.95
5,jab,664772379.0,13.925,1.183,-3.299,-42.87,-110.43,-109.02,-22.39,18.47
5,jab,664777379.0,16.683,1.235,-3.687,-54.15,-108.54,-113.41,-18.97,16.04
5,jab,664782379.0,19.642,0.886,-3.96,-68.96,-102.8,-118.66,-15.58,13.64
5,jab,664787379.0,22.204,0.024,-3.898,-84.02,-91.1,-126.28,-12.09,11.32
5,jab,664792379.0,24.617,-1.422,-4.118,-103.41,-72.38,-142.01,-15.57,9.14
5,jab,664797379.0,26.212,-3.979,-4.424,-121.71,-50.24,-162.07,-18.62,7.17
5,jab,664802379.0,26.825,-6.574,-4.621,-147.38,-30.0,-181.59,-21.47,5.41
5,jab,664807379.0,25.829,-9.117,-4.654,-168.66,-17.38,-195.55,-24.21,3.85
5,jab,664812379.0,24.402,-11.703,-4.951,-181.04,-10.61,-195.67,-26.87,2.47
5,jab,664817379.0,23.348,-14.241,-5.588,-188.9,-12.68,-188.78,-29.49,1.23
5,jab,664822379.0,21.749,-16.735,-5.741,-194.63,-15.79,-174.7,-32.03,0.11
5,jab,664827379.0,21.246,-18.584,-5.89,-196.28,-20.37,-160.49,-34.5,-0.94
5,jab,664832379.0,20.288,-20.107,-5.823,-196.04,-22.2,-133.48,-36.9,-1.92
5,jab,664837379.0,19.307,-21.682,-5.497,-186.28,-21.89,-97.8,-39.16,-2.8
5,jab,664842379.0,18.383,-22.252,-5.32,-174.7,-19.82,-60.49,-41.3,-3.62
5,jab,664847379.0,17.315,-22.113,-5.2,-161.52,-14.33,-22.07,-43.33,-4.36
5,jab,664852379.0,15.265,-21.442,-4.501,-145.12,-12.26,10.3,-45.21,-5.03
5,jab,664857379.0,15.098,-20.102,-4.918,-124.7,-16.16,32.5,-46.99,-5.73
5,jab,664862379.0,15.112,-19.087,-4.108,-104.88,-4.57,58.35,-48.61,-6.4
5,jab,664867379.0,14.418,-17.363,-3.917,-87.44,-0.85,77.44,-50.12,-7.05
5,jab,664872379.0,14.969,-15.874,-3.428,-66.65,10.43,90.43,-51.49,-7.71
5,jab,664877379.0,14.341,-14.198,-3.409,-46.46,18.66,103.11,-52.76,-8.36
5,jab,664882379.0,13.537,-12.613,-3.012,-25.49,28.48,111.04,-53.89,-8.97
5,jab,664887379.0,12.828,-11.1,-3.112,-11.83,28.35,111.16,-54.99,-9.62
5,jab,664892379.0,12.11,-9.792,-3.414,-3.54,22.93,105.37,-56.09,-10.3
5,jab,664897379.0,11.377,-8.519,-3.567,2.32,16.34,99.15,-57.21,-11.03
5,jab,664902379.0,11.234,-7.412,-3.783,6.1,7.87,95.43,-58.38,-11.84
5,jab,664907379.0,10.343,-6.421,-3.84,6.89,0.98,100.85,-59.59,-12.68
5,jab,664912379.0,10.353,-6.158,-3.74,6.1,-3.9,104.51,-60.8,-13.55
5,jab,664917379.0,10.592,-5.732,-4.343,-0.37,-12.68,106.89,-62.13,-14.46
5,jab,664922379.0,10.736,-5.531,-4.75,-4.45,-22.8,109.82,-63.52,-15.4
5,jab,664927379.0,10.496,-5.344,-4.606,-4.63,-29.57,113.54,-64.89,-16.36
5,jab,664932379.0,10.099,-5.21,-4.511,-0.37,-36.52,116.28,-66.21,-17.32
5,jab,664937379.0,9.649,-4.97,-4.583,8.66,-41.46,112.62,-67.49,-18.28
5,jab,664942379.0,8.586,-4.602,-4.118,25.06,-44.94,104.15,-68.66,-19.22
5,jab,664947379.0,7.221,-4.511,-3.721,44.82,-45.24,93.23,-69.66,-20.08
5,jab,664952379.0,6.206,-4.314,-3.218,64.45,-42.26,80.73,-70.48,-20.86
5,jab,664957379.0,5.502,-3.946,-2.715,81.89,-40.24,68.54,-71.16,-21.62
5,jab,664962379.0,4.899,-3.615,-2.207,96.1,-37.8,58.66,-71.7,-22.36
5,jab,664967379.0,4.195,-3.505,-1.293,106.71,-31.95,51.65,-71.94,-23.04
5,jab,664972379.0,3.701,-3.673,-0.441,112.99,-28.6,48.23,-71.89,-23.62
5,jab,664977379.0,3.333,-4.161,0.393,112.62,-27.93,48.96,-71.59,-24.05
5,jab,664982379.0,2.811,-4.53,1.389,108.23,-29.57,50.85,-71.09,-24.33
5,jab,664987379.0,2.413,-4.673,2.121,100.61,-35.73,52.99,-70.48,-24.52
5,jab,664992379.0,1.887,-4.779,2.61,91.71,-41.04,56.22,-69.85,-24.61
5,jab,664997379.0,1.331,-4.803,3.079,80.98,-43.05,59.57,-69.21,-24.59
5,jab,665002379.0,0.642,-4.86,3.247,67.99,-42.26,62.99,-68.61,-24.44
5,jab,665007379.0,0.019,-5.1,3.29,54.88,-40.0,66.52,-68.12,-24.15
5,jab,665012379.0,-0.594,-5.54,3.347,41.71,-37.68,70.0,-67.73,-23.74
5,jab,665017379.0,-1.326,-6.1,3.414,30.85,-36.77,72.5,-67.44,-23.23
5,jab,665022379.0,-2.04,-6.536,3.543,23.17,-38.41,72.68,-67.2,-22.65
5,jab,665027379.0,-2.72,-6.862,3.697,19.45,-42.38,69.33,-67.0,-22.02
5,jab,665032379.0,-3.108,-7.116,3.85,19.76,-47.2,63.41,-66.79,-21.39
5,jab,665037379.0,-3.333,-7.307,4.094,22.62,-50.61,56.89,-66.56,-20.78
5,jab,665042379.0,-3.519,-7.384,4.515,26.77,-52.26,51.34,-66.27,-20.17
5,jab,665047379.0,-3.587,-7.566,4.865,30.0,-51.22,44.02,-65.94,-19.59
5,jab,665052379.0,-3.433,-7.298,5.085,30.73,-50.55,34.39,-65.58,-19.02
5,jab,665057379.0,-3.96,-7.298,5.665,34.7,-47.74,29.94,-65.14,-18.41
6,jab,668932379.0,2.16,-7.671,6.843,-22.44,-14.7,10.37,-46.69,-9.96
6,jab,668937379.0,2.136,-7.652,6.809,-16.59,-10.61,6.52,-46.8,-10.05
6,jab,668942379.0,2.03,-7.709,6.771,-10.91,-7.26,2.38,-46.9,-10.11
6,jab,668947379.0,1.982,-7.724,6.675,-5.73,-4.94,-1.46,-46.97,-10.15
6,jab,668952379.0,1.911,-7.671,6.709,-1.4,-3.72,-4.76,-47.01,-10.18
6,jab,668957379.0,1.872,-7.676,6.737,1.28,-3.72,-6.59,-47.04,-10.2
6,jab,668962379.0,1.887,-7.657,6.709,2.32,-4.51,-7.32,-47.06,-10.23
6,jab,668967379.0,1.844,-7.681,6.689,2.26,-6.65,-6.71,-47.09,-10.26
6,jab,668972379.0,1.901,-7.705,6.713,1.46,-8.6,-6.16,-47.12,-10.31
6,jab,668977379.0,1.92,-7.748,6.804,0.91,-10.18,-5.37,-47.15,-10.36
6,jab,668982379.0,1.877,-7.786,6.79,0.55,-11.77,-5.0,-47.18,-10.42
6,jab,668987379.0,1.824,-7.805,6.809,0.0,-13.17,-4.94,-47.21,-10.47
6,jab,668992379.0,1.733,-7.843,6.785,-0.91,-14.57,-5.49,-47.26,-10.53
6,jab,668997379.0,1.666,-7.973,6.847,-1.95,-16.65,-5.91,-47.31,-10.58
6,jab,669002379.0,1.599,-8.121,6.852,-3.11,-18.41,-6.95,-47.37,-10.63
6,jab,669007379.0,1.638,-8.313,6.795,-1.71,-19.02,-9.33,-47.45,-10.68
6,jab,669012379.0,1.575,-8.643,6.9,4.21,-17.32,-13.9,-47.51,-10.71
6,jab,669017379.0,1.46,-8.844,7.053,13.11,-13.29,-21.1,-47.52,-10.71
6,jab,669022379.0,1.341,-8.739,7.173,23.11,-8.23,-31.16,-47.47,-10.67
6,jab,669027379.0,1.001,-8.926,7.403,33.84,-1.28,-39.27,-47.36,-10.57
6,jab,669032379.0,0.709,-9.045,7.657,44.39,5.85,-48.29,-47.19,-10.39
6,jab,669037379.0,0.417,-8.906,7.666,53.11,9.82,-55.98,-46.97,-10.18
6,jab,669042379.0,-0.177,-9.299,8.27,56.52,10.73,-62.56,-46.73,-9.91
6,jab,669047379.0,-0.742,-10.4,8.705,52.44,9.63,-62.44,-46.54,-9.6
6,jab,669052379.0,-1.35,-9.677,8.753,50.49,0.79,-71.46,-46.31,-9.28
6,jab,669057379.0,-2.634,-10.424,9.582,51.22,-4.45,-67.93,-46.09,-8.91
6,jab,669062379.0,-3.074,-10.712,10.161,50.49,-6.52,-67.68,-45.85,-8.53
6,jab,669067379.0,-3.572,-10.97,10.554,52.93,-8.9,-69.63,-45.59,-8.14
6,jab,669072379.0,-3.95,-10.793,10.942,54.02,-12.74,-73.29,-45.31,-7.75
6,jab,669077379.0,-4.266,-10.898,11.396,53.72,-15.91,-73.48,-45.01,-7.37
6,jab,669082379.0,-5.071,-9.773,12.072,56.52,-22.38,-78.48,-44.62,-6.97
6,jab,669087379.0,-5.847,-9.538,12.646,59.63,-24.57,-77.38,-44.17,-6.54
6,jab,669092379.0,-6.416,-9.385,13.671,63.41,-24.7,-78.29,-43.67,-6.11
6,jab,669097379.0,-7.302,-9.562,14.892,64.33,-24.39,-79.39,-43.13,-5.66
6,jab,669102379.0,-8.284,-9.787,16.146,62.32,-25.3,-78.78,-42.59,-5.2
6,jab,669107379.0,-9.515,-9.926,17.846,56.4,-25.43,-72.32,-42.04,-4.72
6,jab,669112379.0,-11.286,-10.424,19.36,43.54,-26.71,-55.61,-41.55,-4.21
6,jab,669117379.0,-12.819,-10.831,20.81,23.96,-26.28,-32.87,-41.16,-3.68
6,jab,669122379.0,-14.14,-10.621,21.438,-4.15,-21.89,-7.32,-40.88,-3.11
6,jab,669127379.0,-14.595,-10.453,21.754,-35.67,-15.73,17.32,-40.75,-2.5
6,jab,669132379.0,-14.902,-9.778,21.198,-63.9,-9.82,37.5,-40.74,-1.84
6,jab,669137379.0,-15.227,-8.686,20.748,-89.27,-3.35,55.79,-40.82,-1.14
6,jab,669142379.0,-15.05,-7.355,19.767,-105.73,2.2,67.62,-40.93,-0.4
6,jab,669147379.0,-14.849,-5.942,18.914,-113.78,8.9,70.67,-41.02,0.39
6,jab,669152379.0,-14.619,-4.602,17.889,-110.12,14.51,63.11,-41.03,1.22
6,jab,669157379.0,-14.26,-3.491,16.937,-98.41,20.0,41.34,-40.92,2.08
6,jab,669162379.0,-13.661,-2.332,15.826,-78.11,28.05,5.79,-40.65,2.99
6,jab,669167379.0,-12.574,-1.049,14.557,-48.35,37.26,-40.73,-40.16,3.93
6,jab,669172379.0,-11.1,-0.043,13.163,-11.71,44.88,-95.3,-39.42,4.87
6,jab,669177379.0,-9.548,0.929,11.684,22.44,46.04,-151.95,-38.43,5.78
6,jab,669182379.0,-7.46,1.887,9.965,48.96,38.96,-206.52,-37.2,6.59
6,jab,669187379.0,-5.521,2.873,8.418,70.73,25.91,-244.88,-35.74,7.22
6,jab,669192379.0,-2.576,3.658,6.78,76.4,8.11,-274.21,-34.08,7.48
6,jab,669197379.0,0.522,4.137,5.325,69.63,-12.8,-288.48,-32.3,7.18
6,jab,669202379.0,3.668,4.444,4.266,55.3,-33.05,-286.83,-30.46,6.26
6,jab,669207379.0,7.398,4.602,3.175,37.32,-46.34,-273.35,-28.56,4.85
6,jab,669212379.0,10.501,4.324,1.772,18.96,-58.35,-248.23,-26.54,3.15
6,jab,669217379.0,12.68,4.415,1.006,2.38,-58.11,-217.13,-24.46,1.39
6,jab,669222379.0,14.083,5.066,-0.163,-14.09,-59.09,-189.09,-22.2,-0.33
6,jab,669227379.0,15.361,6.177,-1.58,-27.5,-61.83,-170.98,-19.8,-1.97
6,jab,669232379.0,16.367,7.345,-2.72,-38.29,-66.34,-165.91,-17.39,-3.55
6,jab,669237379.0,17.549,8.633,-3.62,-42.01,-71.52,-178.72,-14.99,-5.07
6,jab,669242379.0,18.483,9.409,-4.544,-38.6,-79.94,-204.09,-12.57,-6.57
6,jab,669247379.0,19.498,9.773,-5.148,-29.76,-90.55,-238.54,-10.1,-8.09
6,jab,669252379.0,20.585,9.361,-5.497,-22.32,-102.5,-274.57,-7.6,-9.67
6,jab,669257379.0,21.677,8.667,-5.516,-17.01,-116.16,-304.94,-5.09,-11.34
6,jab,669262379.0,23.501,7.049,-5.306,-16.59,-125.12,-320.18,-2.53,-13.12
6,jab,669267379.0,25.249,5.296,-4.894,-22.8,-134.27,-322.32,0.07,-14.99
6,jab,669272379.0,26.456,3.419,-4.616,-37.93,-142.68,-311.22,2.75,-16.95
6,jab,669277379.0,26.997,1.216,-4.046,-55.43,-147.44,-289.7,5.69,-18.95
6,jab,669282379.0,26.992,-1.542,-3.553,-77.68,-147.44,-262.2,2.06,-20.93
6,jab,669287379.0,26.173,-4.492,-3.026,-102.87,-143.96,-229.57,-0.96,-22.79
6,jab,669292379.0,24.823,-6.905,-2.504,-125.06,-135.24,-190.61,-3.75,-24.46
6,jab,669297379.0,23.296,-8.72,-2.04,-142.01,-123.29,-145.06,-6.44,-25.96
6,jab,669302379.0,22.75,-10.204,-1.671,-160.12,-94.27,-94.33,-9.08,-27.21
6,jab,669307379.0,21.926,-11.65,-1.729,-161.1,-94.94,-45.3,-11.66,-28.37
6,jab,669312379.0,20.37,-12.507,-0.795,-161.77,-88.11,-3.6,-14.09,-29.4
6,jab,669317379.0,20.485,-12.579,-0.584,-147.99,-74.94,24.02,-16.38,-30.35
6,jab,669322379.0,18.9,-11.985,0.067,-124.27,-59.09,46.77,-18.46,-31.18
6,jab,669327379.0,19.312,-11.77,0.532,-96.46,-19.88,67.8,-20.31,-31.83
6,jab,669332379.0,18.751,-11.286,-0.412,-61.16,0.3,83.11,-22.05,-32.37
6,jab,669337379.0,17.875,-10.056,0.0,-26.83,33.11,93.29,-23.54,-32.77
6,jab,669342379.0,17.32,-8.509,-0.373,2.32,61.28,103.35,-24.9,-33.09
6,jab,669347379.0,16.807,-7.111,-0.397,25.61,85.3,116.46,-26.15,-33.35
6,jab,669352379.0,15.773,-5.631,-0.311,35.55,98.48,133.35,-27.31,-33.61
6,jab,669357379.0,15.342,-4.137,-0.34,39.51,105.79,150.24,-28.47,-33.92
6,jab,669362379.0,15.04,-2.816,-0.512,36.95,106.89,167.07,-29.72,-34.3
6,jab,669367379.0,14.542,-1.776,-0.503,29.51,103.9,183.35,-31.1,-34.76
6,jab,669372379.0,13.939,-0.967,-0.637,19.39,97.87,197.74,-32.85,-35.29
6,jab,669377379.0,13.355,-0.196,-0.852,10.79,90.24,208.29,-35.48,-35.87
6,jab,669382379.0,12.799,0.474,-1.063,3.41,81.65,214.57,-31.63,-36.45
6,jab,669387379.0,12.249,0.857,-1.197,-1.52,73.23,216.83,-28.12,-37.02
6,jab,669392379.0,11.765,1.006,-1.422,-4.94,66.89,215.06,-24.69,-37.58
6,jab,669397379.0,11.353,0.977,-1.475,-5.18,61.46,210.37,-21.29,-38.15
6,jab,669402379.0,11.013,0.589,-1.542,-2.26,58.05,204.45,-17.69,-38.74
6,jab,669407379.0,10.592,0.105,-1.508,5.06,59.09,198.17,-13.79,-39.31
6,jab,669412379.0,10.161,-0.373,-1.312,15.73,64.82,192.07,-16.72,-39.85
6,jab,669417379.0,9.629,-0.632,-1.125,29.02,71.52,186.16,-19.26,-40.35
6,jab,669422379.0,9.064,-0.527,-0.953,40.67,78.41,181.04,-21.7,-40.82
6,jab,669427379.0,7.503,-0.541,-0.091,52.32,79.57,173.29,-23.0,-41.33
6,jab,669432379.0,6.325,-0.666,0.503,60.61,77.07,163.9,-23.3,-41.78
6,jab,669437379.0,5.588,-0.642,1.068,63.84,73.05,152.74,-23.14,-42.14
6,jab,669442379.0,5.023,-0.498,1.82,62.74,66.28,142.62,-22.68,-42.36
6,jab,669447379.0,4.501,-0.541,2.619,56.95,59.09,136.34,-22.18,-42.41
6,jab,669452379.0,4.094,-0.785,3.261,47.87,53.41,132.32,-21.77,-42.31
6,jab,669457379.0,3.797,-1.135,3.989,37.56,48.11,130.24,-21.47,-42.08
6,jab,669462379.0,3.299,-1.609,4.606,25.67,42.13,128.78,-21.3,-41.71
6,jab,669467379.0,2.816,-2.112,5.109,14.02,35.79,124.88,-21.25,-41.24
6,jab,669472379.0,2.658,-2.978,5.497,2.93,29.94,119.94,-21.38,-40.73
6,jab,669477379.0,1.954,-3.165,6.239,-6.46,21.59,108.84,-21.52,-40.12
6,jab,669482379.0,1.432,-3.797,6.881,-9.88,20.18,108.11,-21.72,-39.43
6,jab,669487379.0,1.422,-4.678,7.082,-13.66,21.77,106.95,-22.02,-38.72
6,jab,669492379.0,1.413,-4.961,7.096,-17.56,21.95,104.39,-22.37,-38.02
6,jab,669497379.0,1.36,-5.382,7.173,-23.11,23.78,105.43,-22.77,-37.32
6,jab,669502379.0,1.183,-5.66,7.101,-28.9,24.39,108.35,-23.23,-36.6
6,jab,669507379.0,1.063,-5.818,6.891,-33.66,23.29,110.55,-23.73,-35.89
6,jab,669512379.0,0.919,-5.866,6.656,-37.5,21.46,111.34,-24.27,-35.19
6,jab,669517379.0,0.953,-6.225,6.555,-40.73,19.94,108.66,-24.85,-34.5
6,jab,669522379.0,0.862,-6.115,6.531,-42.99,16.65,102.32,-25.43,-33.84
6,jab,669527379.0,0.259,-6.45,6.747,-38.96,15.61,100.85,-25.99,-33.12
7,jab,673692379.0,0.637,-8.93,4.061,-5.67,1.89,4.39,-65.01,-3.04
7,jab,673697379.0,0.551,-8.945,4.061,-5.79,2.01,4.51,-65.05,-3.04
7,jab,673702379.0,0.474,-8.902,4.051,-6.1,1.95,4.15,-65.09,-3.02
7,jab,673707379.0,0.393,-8.882,4.046,-6.16,1.89,3.41,-65.12,-3.0
7,jab,673712379.0,0.364,-8.911,4.061,-6.22,0.98,2.56,-65.16,-2.98
7,jab,673717379.0,0.302,-8.983,3.994,-6.4,-0.12,1.65,-65.21,-2.95
7,jab,673722379.0,0.283,-9.026,4.017,-6.89,-1.28,1.04,-65.26,-2.93
7,jab,673727379.0,0.278,-9.122,3.936,-7.8,-2.68,0.55,-65.33,-2.92
7,jab,673732379.0,0.249,-9.246,3.979,-9.15,-3.84,0.49,-65.4,-2.91
7,jab,673737379.0,0.187,-9.347,3.989,-10.49,-5.79,0.43,-65.48,-2.9
7,jab,673742379.0,0.148,-9.471,3.979,-11.89,-7.8,-0.43,-65.57,-2.9
7,jab,673747379.0,-0.01,-9.586,3.989,-13.54,-9.45,-1.22,-65.68,-2.88
7,jab,673752379.0,-0.115,-9.754,4.013,-15.0,-11.04,-3.54,-65.79,-2.87
7,jab,673757379.0,0.187,-9.912,3.907,-20.91,-12.26,-10.3,-65.95,-2.89
7,jab,673762379.0,-0.057,-9.567,4.051,-23.66,-16.4,-13.17,-66.08,-2.91
7,jab,673767379.0,-0.709,-9.926,4.544,-20.37,-17.5,-11.28,-66.17,-2.86
7,jab,673772379.0,-0.991,-10.396,4.702,-17.68,-14.02,-8.29,-66.25,-2.77
7,jab,673777379.0,-1.173,-10.649,4.836,-16.22,-11.04,-7.5,-66.31,-2.66
7,jab,673782379.0,-1.288,-10.932,4.994,-13.11,-10.24,-7.8,-66.36,-2.53
7,jab,673787379.0,-1.729,-11.214,5.325,-10.91,-11.95,-9.7,-66.38,-2.38
7,jab,673792379.0,-1.992,-11.535,5.981,-14.76,-14.7,-17.5,-66.37,-2.23
7,jab,673797379.0,-3.06,-11.775,6.962,-10.3,-15.12,-18.72,-66.29,-2.01
7,jab,673802379.0,-3.472,-12.22,7.647,-6.77,-9.15,-18.05,-66.15,-1.74
7,jab,673807379.0,-4.108,-12.617,8.131,-5.24,-3.78,-15.18,-66.0,-1.42
7,jab,673812379.0,-4.554,-12.752,8.715,-1.16,0.79,-12.68,-65.8,-1.06
7,jab,673817379.0,-4.98,-12.641,9.337,0.61,4.82,-9.63,-65.55,-0.66
7,jab,673822379.0,-5.382,-12.335,9.874,1.95,6.83,-5.06,-65.26,-0.24
7,jab,673827379.0,-6.038,-11.837,10.424,0.49,7.74,1.34,-64.92,0.22
7,jab,673832379.0,-6.57,-11.339,11.143,0.37,7.99,8.35,-64.53,0.71
7,jab,673837379.0,-6.838,-11.248,11.803,-2.2,9.51,12.38,-64.12,1.19
7,jab,673842379.0,-6.953,-11.473,12.416,-7.99,10.12,12.13,-63.73,1.67
7,jab,673847379.0,-6.919,-11.621,12.718,-17.93,8.35,11.1,-63.4,2.11
7,jab,673852379.0,-7.705,-11.87,13.771,-30.12,2.44,11.59,-63.09,2.54
7,jab,673857379.0,-8.906,-11.444,14.696,-38.41,-6.34,17.99,-62.78,2.97
7,jab,673862379.0,-9.754,-11.53,15.471,-47.74,-9.88,30.85,-62.49,3.4
7,jab,673867379.0,-10.482,-11.219,16.108,-55.98,-11.59,41.65,-62.21,3.84
7,jab,673872379.0,-11.214,-10.726,16.764,-61.34,-12.68,47.8,-61.92,4.28
7,jab,673877379.0,-11.861,-10.132,17.559,-66.34,-12.38,47.87,-61.6,4.75
7,jab,673882379.0,-12.742,-9.553,18.158,-69.15,-7.68,45.43,-61.27,5.25
7,jab,673887379.0,-13.245,-9.117,18.498,-67.68,4.09,40.67,-60.9,5.82
7,jab,673892379.0,-13.235,-8.715,18.258,-66.77,20.06,32.13,-60.52,6.46
7,jab,673897379.0,-12.9,-8.059,17.521,-64.63,35.85,20.43,-60.12,7.19
7,jab,673902379.0,-12.397,-7.46,16.688,-59.57,50.85,8.84,-59.69,7.97
7,jab,673907379.0,-11.866,-7.044,15.72,-52.87,63.17,-5.55,-59.24,8.82
7,jab,673912379.0,-11.392,-6.732,14.609,-46.16,73.48,-21.89,-58.77,9.71
7,jab,673917379.0,-10.774,-6.436,13.475,-39.82,83.6,-38.54,-58.3,10.64
7,jab,673922379.0,-10.051,-6.172,12.325,-34.57,91.71,-54.76,-57.84,11.6
7,jab,673927379.0,-9.146,-6.029,11.133,-31.28,97.44,-69.63,-57.4,12.56
7,jab,673932379.0,-8.164,-5.722,10.022,-28.84,101.4,-82.32,-56.99,13.51
7,jab,673937379.0,-7.269,-5.286,8.921,-29.7,104.21,-91.95,-56.61,14.45
7,jab,673942379.0,-6.033,-4.568,7.283,-32.56,106.52,-100.85,-56.28,15.38
7,jab,673947379.0,-4.774,-3.601,5.665,-36.65,104.39,-109.82,-55.98,16.3
7,jab,673952379.0,-3.687,-2.734,4.094,-42.13,97.99,-117.87,-55.74,17.19
7,jab,673957379.0,-1.762,-1.872,2.069,-50.18,91.71,-125.61,-55.72,17.94
7,jab,673962379.0,-1.173,-0.857,0.848,-56.52,80.0,-130.12,-55.79,18.86
7,jab,673967379.0,0.182,-0.196,-0.412,-60.91,66.28,-139.45,-58.06,18.37
7,jab,673972379.0,1.743,0.886,-2.126,-65.67,45.85,-149.63,-54.07,17.48
7,jab,673977379.0,3.859,2.002,-3.701,-70.24,27.13,-164.88,-50.3,16.42
7,jab,673982379.0,5.665,3.242,-5.162,-77.99,8.11,-181.22,-46.72,15.27
7,jab,673987379.0,7.623,4.616,-6.249,-87.93,-3.41,-200.49,-43.35,14.06
7,jab,673992379.0,9.716,5.344,-7.57,-98.23,-11.59,-218.17,-40.07,12.79
7,jab,673997379.0,11.77,5.813,-8.447,-101.22,-11.95,-234.63,-36.85,11.5
7,jab,674002379.0,14.044,5.756,-9.285,-101.34,-10.06,-251.22,-33.65,10.18
7,jab,674007379.0,16.218,5.334,-10.06,-96.83,-9.33,-271.1,-30.41,8.83
7,jab,674012379.0,18.373,4.731,-10.453,-87.07,-8.72,-293.48,-27.11,7.45
7,jab,674017379.0,20.499,3.96,-10.376,-71.46,-8.17,-315.12,-23.74,6.03
7,jab,674022379.0,22.841,3.012,-10.367,-50.85,-5.67,-332.32,-20.24,4.59
7,jab,674027379.0,24.833,1.46,-9.634,-30.43,-0.06,-342.87,-16.55,3.13
7,jab,674032379.0,26.743,-0.498,-9.246,-18.6,4.27,-347.62,-19.85,1.67
7,jab,674037379.0,28.003,-2.547,-8.988,-16.34,6.77,-339.7,-22.82,0.23
7,jab,674042379.0,27.969,-4.86,-8.365,-29.21,5.3,-321.4,-25.5,-1.16
7,jab,674047379.0,27.16,-7.728,-8.126,-50.98,1.04,-290.49,-27.97,-2.49
7,jab,674052379.0,25.493,-10.3,-8.159,-83.54,-0.79,-243.11,-30.39,-3.69
7,jab,674057379.0,23.985,-13.111,-8.528,-121.34,-10.24,-187.26,-32.84,-4.81
7,jab,674062379.0,21.586,-14.945,-8.6,-153.72,-25.55,-130.85,-35.33,-5.86
7,jab,674067379.0,20.379,-16.893,-8.662,-164.27,-43.54,-81.59,-37.77,-6.9
7,jab,674072379.0,19.297,-17.808,-9.242,-168.84,-45.85,-32.38,-40.19,-7.87
7,jab,674077379.0,18.143,-18.325,-8.868,-169.21,-32.99,15.43,-42.53,-8.7
7,jab,674082379.0,16.573,-17.717,-10.166,-159.27,-46.22,53.6,-44.86,-9.54
7,jab,674087379.0,16.664,-17.502,-10.448,-113.72,-42.38,79.21,-46.94,-10.34
7,jab,674092379.0,15.045,-16.261,-9.203,-49.82,-24.27,90.98,-48.63,-11.03
7,jab,674097379.0,14.676,-14.375,-8.571,24.21,-3.05,91.34,-49.96,-11.65
7,jab,674102379.0,14.269,-12.153,-7.982,95.49,23.11,89.15,-50.96,-12.19
7,jab,674107379.0,13.623,-9.553,-7.087,150.43,43.66,85.98,-51.73,-12.71
7,jab,674112379.0,13.168,-7.566,-5.942,186.28,56.65,87.13,-52.35,-13.26
7,jab,674117379.0,12.57,-5.746,-4.87,203.35,60.12,95.98,-52.91,-13.88
7,jab,674122379.0,11.808,-4.506,-3.045,203.6,54.88,106.46,-53.34,-14.64
7,jab,674127379.0,11.722,-3.156,-1.748,190.91,42.8,114.02,-53.71,-15.59
7,jab,674132379.0,11.641,-1.958,-0.321,174.88,32.01,121.28,-53.77,-16.73
7,jab,674137379.0,11.636,-1.633,1.116,160.55,24.76,128.6,-53.02,-17.88
7,jab,674142379.0,11.827,-1.068,2.093,139.82,19.09,130.0,-51.81,-19.01
7,jab,674147379.0,11.593,-0.608,2.959,115.3,15.3,135.06,-50.44,-20.06
7,jab,674152379.0,11.095,-0.421,3.658,89.15,12.01,143.66,-49.13,-21.03
7,jab,674157379.0,10.376,-0.359,4.027,65.98,8.23,155.67,-47.93,-21.94
7,jab,674162379.0,9.883,-0.881,4.118,39.02,4.88,163.29,-47.02,-22.82
7,jab,674167379.0,9.189,-1.082,3.816,11.34,-6.16,166.28,-46.34,-23.73
7,jab,674172379.0,8.509,-1.183,3.649,-9.33,-15.79,167.93,-45.82,-24.64
7,jab,674177379.0,7.954,-1.523,3.764,-26.77,-20.85,169.21,-45.47,-25.51
7,jab,674182379.0,7.436,-2.533,3.62,-41.77,-24.57,168.05,-45.47,-26.31
7,jab,674187379.0,6.675,-3.27,3.376,-55.79,-25.24,165.73,-45.71,-27.0
7,jab,674192379.0,5.918,-3.783,3.232,-65.24,-24.82,163.17,-46.11,-27.58
7,jab,674197379.0,5.085,-4.602,3.031,-68.23,-23.96,159.76,-46.65,-28.0
7,jab,674202379.0,4.089,-5.401,2.897,-64.45,-20.98,153.72,-47.27,-28.22
7,jab,674207379.0,2.964,-6.153,2.792,-56.46,-16.16,146.1,-47.91,-28.21
7,jab,674212379.0,1.944,-6.881,2.619,-47.56,-12.07,137.38,-48.57,-28.0
7,jab,674217379.0,1.197,-7.46,2.538,-37.56,-10.98,128.48,-49.21,-27.67
7,jab,674222379.0,0.666,-8.035,2.428,-28.78,-12.32,119.94,-49.83,-27.26
7,jab,674227379.0,0.201,-8.442,2.409,-22.07,-16.22,112.13,-50.42,-26.82
7,jab,674232379.0,-0.278,-8.772,2.495,-17.07,-21.59,106.34,-50.98,-26.36
7,jab,674237379.0,-0.527,-9.127,2.658,-14.82,-28.41,103.17,-51.51,-25.91
7,jab,674242379.0,-0.488,-9.395,2.772,-15.18,-37.5,101.89,-52.02,-25.52
7,jab,674247379.0,-0.235,-9.534,2.983,-17.5,-47.38,102.2,-52.52,-25.21
7,jab,674252379.0,-0.115,-9.481,3.247,-21.77,-57.38,104.33,-53.0,-24.97
7,jab,674257379.0,-0.067,-9.404,3.486,-27.56,-65.79,106.34,-53.47,-24.79
7,jab,674262379.0,-0.211,-9.199,3.591,-34.02,-73.54,107.56,-53.94,-24.63
7,jab,674267379.0,-0.431,-8.94,3.634,-40.24,-78.54,109.39,-54.42,-24.47
7,jab,674272379.0,-0.804,-8.744,3.668,-45.49,-81.34,112.62,-54.9,-24.28
7,jab,674277379.0,-1.307,-8.768,3.663,-50.43,-83.54,114.15,-55.39,-24.05
7,jab,674282379.0,-1.839,-8.61,3.472,-56.4,-85.37,113.23,-55.92,-23.76
8,jab,678247379.0,-3.855,-7.623,13.671,8.54,-0.79,-9.15,-35.58,-14.86
8,jab,678252379.0,-4.87,-7.805,14.624,9.09,-1.77,-4.82,-35.38,-14.24
8,jab,678257379.0,-5.789,-8.064,15.4,9.7,-1.65,-0.73,-35.18,-13.6
8,jab,678262379.0,-6.862,-8.27,16.185,9.76,-0.85,2.99,-34.97,-12.92
8,jab,678267379.0,-8.001,-7.944,16.884,9.51,1.1,5.85,-34.73,-12.19
8,jab,678272379.0,-9.313,-7.264,17.593,7.87,5.3,11.22,-34.45,-11.4
8,jab,678277379.0,-10.53,-6.574,18.038,3.11,11.34,18.84,-34.14,-10.54
8,jab,678282379.0,-11.87,-6.316,18.292,-1.89,17.99,25.73,-33.85,-9.61
8,jab,678287379.0,-13.063,-5.928,18.507,-4.33,25.49,25.85,-33.55,-8.61
8,jab,678292379.0,-14.068,-5.229,18.277,-4.21,29.09,19.39,-33.22,-7.57
8,jab,678297379.0,-14.997,-4.434,18.34,2.2,30.91,7.56,-32.81,-6.5
8,jab,678302379.0,-15.821,-3.639,18.115,12.01,32.93,-9.02,-32.33,-5.39
8,jab,678307379.0,-16.285,-3.089,17.755,26.22,34.27,-28.66,-31.75,-4.28
8,jab,678312379.0,-16.012,-2.725,17.176,40.3,33.96,-53.48,-31.1,-3.17
8,jab,678317379.0,-15.476,-2.131,16.386,51.46,30.0,-81.95,-30.37,-2.1
8,jab,678322379.0,-14.767,-1.614,15.773,60.79,22.32,-109.7,-29.58,-1.09
8,jab,678327379.0,-13.561,-1.384,15.074,68.05,12.87,-134.33,-28.76,-0.17
8,jab,678332379.0,-11.937,-1.312,14.38,70.43,2.74,-153.84,-27.95,0.64
8,jab,678337379.0,-9.644,-1.561,13.159,65.91,-7.74,-166.1,-27.2,1.31
8,jab,678342379.0,-7.135,-1.422,11.976,57.74,-19.45,-172.56,-26.51,1.8
8,jab,678347379.0,-5.042,-1.326,11.066,52.01,-30.12,-167.44,-25.86,2.11
8,jab,678352379.0,-2.428,-1.628,9.874,37.07,-40.49,-161.65,-25.35,2.14
8,jab,678357379.0,0.378,-1.633,8.552,17.8,-50.18,-155.43,-24.97,1.8
8,jab,678362379.0,3.175,-1.36,7.599,0.55,-57.07,-145.18,-24.67,1.04
8,jab,678367379.0,4.42,-1.647,5.938,-17.93,-73.9,-127.8,-24.58,-0.06
8,jab,678372379.0,6.431,-0.828,5.171,-22.62,-77.99,-128.54,-24.38,-1.46
8,jab,678377379.0,8.356,-0.144,3.802,-23.72,-82.62,-130.43,-24.05,-3.14
8,jab,678382379.0,9.495,0.972,2.787,-17.44,-87.8,-138.35,-23.27,-4.96
8,jab,678387379.0,10.702,1.963,1.312,-6.04,-93.41,-151.46,-21.71,-6.87
8,jab,678392379.0,12.009,3.218,0.263,10.91,-95.24,-172.62,-19.51,-8.7
8,jab,678397379.0,13.47,4.731,-0.555,32.44,-96.95,-197.87,-17.03,-10.41
8,jab,678402379.0,15.332,6.053,-1.073,50.98,-96.65,-222.93,-14.44,-12.04
8,jab,678407379.0,17.358,7.092,-1.618,58.54,-96.46,-248.35,-11.81,-13.62
8,jab,678412379.0,19.211,7.968,-2.04,57.07,-99.45,-272.32,-9.2,-15.17
8,jab,678417379.0,20.983,8.126,-2.236,47.99,-108.11,-292.32,-6.68,-16.76
8,jab,678422379.0,22.324,8.092,-2.739,26.1,-116.65,-302.62,-4.24,-18.38
8,jab,678427379.0,23.727,7.336,-3.026,-4.21,-125.3,-305.55,-1.93,-20.05
8,jab,678432379.0,24.967,6.388,-3.371,-38.6,-135.18,-301.22,0.28,-21.79
8,jab,678437379.0,25.934,5.052,-3.472,-74.7,-142.32,-285.43,2.4,-23.59
8,jab,678442379.0,26.466,3.218,-3.39,-111.16,-148.05,-261.46,4.53,-25.44
8,jab,678447379.0,26.619,0.948,-3.457,-150.0,-151.1,-234.51,7.0,-27.32
8,jab,678452379.0,26.082,-1.595,-3.381,-187.68,-151.59,-204.88,2.85,-29.15
8,jab,678457379.0,24.636,-4.027,-2.998,-221.04,-150.37,-171.04,-0.83,-30.88
8,jab,678462379.0,22.98,-6.388,-2.772,-251.16,-147.8,-128.6,-4.31,-32.44
8,jab,678467379.0,21.567,-8.514,-3.112,-275.79,-146.59,-82.32,-7.78,-33.86
8,jab,678472379.0,20.437,-10.391,-3.06,-290.37,-140.91,-38.84,-11.17,-35.11
8,jab,678477379.0,19.417,-12.076,-2.883,-290.18,-128.23,-0.43,-14.44,-36.19
8,jab,678482379.0,18.622,-13.609,-2.294,-274.15,-106.46,27.8,-17.49,-37.05
8,jab,678487379.0,17.957,-14.969,-2.112,-241.04,-75.06,47.26,-20.28,-37.68
8,jab,678492379.0,16.477,-15.457,-1.35,-185.55,-43.54,55.79,-22.68,-38.07
8,jab,678497379.0,15.807,-14.423,-0.551,-123.54,-10.55,59.27,-24.68,-38.32
8,jab,678502379.0,15.754,-13.714,0.01,-54.51,20.73,62.2,-26.25,-38.43
8,jab,678507379.0,15.275,-12.244,0.464,6.16,43.84,62.68,-27.45,-38.47
8,jab,678512379.0,15.294,-10.19,0.876,54.45,56.95,60.98,-28.34,-38.55
8,jab,678517379.0,15.792,-8.298,1.12,82.99,75.12,68.96,-29.01,-38.65
8,jab,678522379.0,15.763,-6.646,1.662,94.7,92.5,85.37,-29.48,-38.75
8,jab,678527379.0,15.998,-5.085,1.724,93.6,105.98,108.66,-29.86,-38.89
8,jab,678532379.0,15.787,-3.51,1.863,82.5,113.66,134.76,-30.1,-39.07
8,jab,678537379.0,15.591,-2.04,1.743,68.9,113.41,155.18,-30.15,-39.34
8,jab,678542379.0,15.385,-0.728,1.494,54.15,108.84,172.38,-29.8,-39.69
8,jab,678547379.0,14.94,0.268,1.092,40.24,100.67,183.48,-28.73,-40.12
8,jab,678552379.0,14.351,1.053,0.412,27.5,87.56,186.65,-26.65,-40.6
8,jab,678557379.0,13.752,1.709,-0.163,16.52,75.37,183.54,-24.13,-41.07
8,jab,678562379.0,12.967,2.049,-0.69,7.38,64.7,180.49,-21.44,-41.55
8,jab,678567379.0,12.172,2.069,-1.168,4.39,57.56,174.57,-18.6,-42.01
8,jab,678572379.0,11.588,1.882,-1.336,4.57,54.09,166.89,-15.7,-42.48
8,jab,678577379.0,11.334,1.542,-1.379,11.4,54.09,157.99,-12.69,-42.96
8,jab,678582379.0,10.927,1.02,-1.077,23.11,58.78,148.41,-9.59,-43.46
8,jab,678587379.0,10.616,0.603,-0.685,40.49,64.02,135.73,-6.43,-43.98
8,jab,678592379.0,10.353,0.364,-0.464,57.74,70.24,122.01,-3.18,-44.49
8,jab,678597379.0,9.428,-0.053,0.259,77.87,73.9,103.11,-2.96,-45.0
8,jab,678602379.0,8.48,-0.551,0.771,95.18,77.2,85.67,-3.15,-45.4
8,jab,678607379.0,7.724,-0.704,1.077,106.95,77.68,71.65,-3.23,-45.72
8,jab,678612379.0,7.456,-0.718,1.446,110.37,74.39,62.38,-3.15,-46.0
8,jab,678617379.0,6.862,-0.728,2.361,109.45,65.91,56.46,-2.89,-46.16
8,jab,678622379.0,6.56,-0.776,3.093,103.35,57.87,56.4,-2.61,-46.23
8,jab,678627379.0,6.254,-0.934,3.941,94.09,50.91,59.21,-2.36,-46.2
8,jab,678632379.0,5.76,-1.269,4.899,83.17,43.84,63.11,-2.2,-46.04
8,jab,678637379.0,5.301,-1.662,5.641,71.52,37.07,65.61,-2.13,-45.77
8,jab,678642379.0,4.846,-2.145,6.316,61.22,31.1,67.07,-2.16,-45.43
8,jab,678647379.0,4.219,-2.456,6.747,53.84,22.56,63.41,-2.26,-45.02
8,jab,678652379.0,3.797,-2.701,7.408,51.95,18.29,62.74,-2.36,-44.54
8,jab,678657379.0,3.242,-3.17,8.021,48.17,14.94,61.4,-2.51,-43.99
8,jab,678662379.0,3.141,-3.357,8.241,48.35,14.33,59.94,-2.66,-43.43
8,jab,678667379.0,3.089,-3.294,8.475,49.51,12.68,57.2,-2.79,-42.87
8,jab,678672379.0,2.964,-3.199,8.854,48.9,9.15,55.0,-2.89,-42.32
8,jab,678677379.0,2.993,-3.122,9.366,46.28,5.12,52.93,-2.98,-41.78
8,jab,678682379.0,3.103,-3.012,9.682,42.13,3.6,51.1,-3.06,-41.27
8,jab,678687379.0,3.026,-3.036,9.993,37.2,4.39,49.39,-3.15,-40.75
8,jab,678692379.0,2.859,-3.069,10.257,30.49,6.83,49.45,-3.27,-40.2
8,jab,678697379.0,2.557,-3.39,10.41,23.29,9.27,50.79,-3.45,-39.61
8,jab,678702379.0,2.361,-3.735,10.381,14.76,9.39,52.32,-3.71,-39.02
8,jab,678707379.0,2.006,-4.334,10.472,3.78,8.66,53.78,-4.06,-38.39
8,jab,678712379.0,1.508,-4.889,10.424,-6.83,7.5,55.43,-4.52,-37.74
8,jab,678717379.0,1.144,-5.454,10.314,-14.88,5.79,57.68,-5.06,-37.07
8,jab,678722379.0,0.718,-6.048,10.18,-19.09,4.02,60.43,-5.67,-36.38
8,jab,678727379.0,0.618,-6.383,9.936,-18.54,2.68,61.89,-6.3,-35.69
8,jab,678732379.0,0.551,-6.766,10.051,-15.98,2.44,60.98,-6.93,-35.02
8,jab,678737379.0,0.426,-6.847,9.893,-12.44,1.89,59.82,-7.55,-34.35
8,jab,678742379.0,0.326,-6.766,9.893,-6.46,3.17,58.05,-8.11,-33.68
8,jab,678747379.0,0.168,-6.46,10.022,0.12,0.37,55.98,-8.61,-33.02
8,jab,678752379.0,-0.081,-5.933,10.142,3.96,-3.72,53.11,-9.02,-32.37
8,jab,678757379.0,-0.053,-5.416,10.262,7.5,-7.38,49.27,-9.36,-31.75
8,jab,678762379.0,0.077,-4.884,10.501,5.98,-9.82,42.13,-9.64,-31.18
8,jab,678767379.0,0.407,-4.381,10.611,4.02,-11.59,34.27,-9.88,-30.65
8,jab,678772379.0,0.622,-4.099,10.86,1.77,-11.95,28.11,-10.09,-30.16
8,jab,678777379.0,0.704,-4.022,11.052,-1.46,-11.04,23.17,-10.29,-29.68
8,jab,678782379.0,0.761,-4.017,11.157,-6.1,-6.65,20.67,-10.51,-29.19
8,jab,678787379.0,0.9,-4.132,11.123,-10.79,-2.13,19.82,-10.76,-28.7
8,jab,678792379.0,1.077,-4.252,11.047,-15.67,1.89,19.76,-11.05,-28.22
8,jab,678797379.0,1.255,-4.458,10.927,-20.37,5.79,20.06,-11.37,-27.75
8,jab,678802379.0,1.231,-4.855,10.812,-24.94,10.18,22.56,-11.75,-27.26
8,jab,678807379.0,1.111,-5.377,10.707,-28.11,14.94,27.62,-12.18,-26.75
8,jab,678812379.0,0.843,-5.837,10.487,-31.59,20.0,32.99,-12.68,-26.2
8,jab,678817379.0,0.766,-6.0,10.094,-35.85,23.96,37.5,-13.21,-25.63
8,jab,678822379.0,0.804,-5.995,9.687,-37.44,26.89,39.45,-13.77,-25.07
8,jab,678827379.0,0.661,-6.057,9.419,-37.93,28.84,39.57,-14.33,-24.49
8,jab,678832379.0,0.45,-6.124,9.309,-37.44,31.04,37.8,-14.9,-23.9
8,jab,678837379.0,0.441,-6.182,9.136,-35.79,32.44,34.82,-15.45,-23.31
8,jab,678842379.0,0.383,-6.153,8.997,-32.38,31.46,31.16,-15.99,-22.73
9,jab,682912379.0,1.302,-6.747,7.791,-8.23,-7.38,10.3,-41.95,-15.23
9,jab,682917379.0,1.149,-6.862,7.934,-7.87,-8.78,10.0,-41.96,-15.09
9,jab,682922379.0,1.01,-6.967,8.021,-7.01,-10.12,8.6,-41.98,-14.95
9,jab,682927379.0,0.848,-7.144,8.203,-5.98,-10.98,7.07,-41.99,-14.79
9,jab,682932379.0,0.733,-7.288,8.351,-4.63,-11.77,5.3,-41.99,-14.63
9,jab,682937379.0,0.608,-7.384,8.614,-3.29,-12.07,3.05,-41.98,-14.46
9,jab,682942379.0,0.579,-7.393,8.777,-2.5,-12.32,0.12,-41.96,-14.29
9,jab,682947379.0,0.642,-7.403,9.017,-2.32,-11.65,-5.0,-41.92,-14.12
9,jab,682952379.0,0.68,-7.441,9.285,-2.62,-9.76,-11.16,-41.87,-13.95
9,jab,682957379.0,0.771,-7.614,9.548,-3.72,-6.52,-17.68,-41.82,-13.78
9,jab,682962379.0,0.862,-8.054,10.094,-8.72,-1.16,-27.38,-41.8,-13.58
9,jab,682967379.0,0.699,-7.527,10.036,-9.51,1.4,-33.23,-41.74,-13.37
9,jab,682972379.0,0.565,-7.819,10.276,-6.59,11.95,-36.95,-41.69,-13.09
9,jab,682977379.0,0.488,-7.824,10.357,-8.23,22.68,-42.62,-41.63,-12.76
9,jab,682982379.0,-0.105,-7.906,10.458,-11.65,31.83,-46.77,-41.6,-12.34
9,jab,682987379.0,-0.747,-7.977,10.525,-16.52,39.88,-49.15,-41.59,-11.84
9,jab,682992379.0,-1.322,-7.944,10.86,-18.66,47.5,-52.26,-41.58,-11.26
9,jab,682997379.0,-1.628,-7.561,10.669,-22.5,54.02,-56.52,-41.56,-10.62
9,jab,683002379.0,-1.891,-7.235,10.539,-19.88,55.67,-59.39,-41.52,-9.97
9,jab,683007379.0,-2.073,-7.547,11.066,-25.43,56.71,-61.65,-41.5,-9.32
9,jab,683012379.0,-2.629,-7.36,11.104,-15.0,48.41,-66.22,-41.41,-8.67
9,jab,683017379.0,-2.911,-7.719,11.296,-18.17,43.11,-69.21,-41.36,-8.04
9,jab,683022379.0,-3.242,-7.092,11.19,-22.74,30.91,-73.84,-41.29,-7.46
9,jab,683027379.0,-3.989,-7.23,12.728,-15.79,23.78,-80.55,-41.13,-6.89
9,jab,683032379.0,-4.444,-7.183,12.852,-6.16,17.93,-89.02,-40.93,-6.33
9,jab,683037379.0,-4.616,-7.283,12.828,-8.11,15.12,-93.29,-40.74,-5.78
9,jab,683042379.0,-4.774,-7.355,13.647,4.63,6.52,-102.99,-40.47,-5.29
9,jab,683047379.0,-5.095,-7.757,13.738,10.67,-2.38,-109.7,-40.19,-4.84
9,jab,683052379.0,-5.171,-8.495,13.886,0.55,-5.06,-118.05,-40.02,-4.41
9,jab,683057379.0,-5.425,-8.595,14.399,12.56,-24.45,-121.89,-39.77,-4.08
9,jab,683062379.0,-5.43,-9.007,14.044,10.79,-33.9,-124.57,-39.58,-3.81
9,jab,683067379.0,-5.349,-9.194,14.657,10.24,-42.26,-128.84,-39.38,-3.6
9,jab,683072379.0,-5.047,-9.16,14.269,13.84,-52.38,-133.66,-39.18,-3.45
9,jab,683077379.0,-4.745,-9.165,14.356,6.77,-53.23,-135.06,-39.01,-3.33
9,jab,683082379.0,-4.659,-9.017,14.949,14.51,-56.28,-138.11,-38.78,-3.24
9,jab,683087379.0,-4.731,-8.897,14.858,18.78,-60.79,-139.51,-38.53,-3.17
9,jab,683092379.0,-4.597,-8.839,15.208,17.01,-59.45,-142.01,-38.28,-3.1
9,jab,683097379.0,-4.731,-8.911,15.265,27.32,-63.35,-146.28,-37.99,-3.05
9,jab,683102379.0,-4.97,-8.964,15.5,27.32,-58.23,-148.41,-37.69,-2.96
9,jab,683107379.0,-5.119,-8.806,15.591,25.37,-50.61,-150.24,-37.41,-2.83
9,jab,683112379.0,-5.2,-8.437,15.337,22.38,-41.52,-150.18,-37.12,-2.65
9,jab,683117379.0,-5.377,-7.954,15.055,18.54,-29.94,-150.12,-36.85,-2.39
9,jab,683122379.0,-4.223,-7.044,14.667,14.51,-23.35,-152.13,-36.55,-2.17
9,jab,683127379.0,-4.329,-6.479,12.838,5.73,-19.09,-148.17,-36.33,-1.88
9,jab,683132379.0,-4.712,-5.449,12.225,0.67,5.06,-146.22,-36.08,-1.43
9,jab,683137379.0,-3.203,-5.037,11.526,2.01,19.57,-147.74,-35.82,-1.02
9,jab,683142379.0,-3.869,-4.166,9.816,-2.56,27.74,-146.4,-35.58,-0.47
9,jab,683147379.0,-3.036,-2.624,8.547,1.28,32.44,-152.74,-35.2,0.08
9,jab,683152379.0,-1.781,-1.686,6.761,9.39,29.21,-156.16,-34.73,0.5
9,jab,683157379.0,-0.958,-0.273,5.239,14.21,32.13,-157.32,-34.03,0.86
9,jab,683162379.0,0.589,1.504,3.922,23.29,37.93,-161.16,-32.81,0.87
9,jab,683167379.0,1.561,2.485,2.059,30.85,27.38,-156.04,-31.0,0.47
9,jab,683172379.0,2.006,3.725,0.599,37.99,17.99,-151.83,-28.57,-0.01
9,jab,683177379.0,3.869,5.473,-0.848,46.83,10.49,-151.46,-25.8,-0.66
9,jab,683182379.0,5.329,6.594,-2.849,51.77,-5.79,-145.79,-22.76,-1.41
9,jab,683187379.0,6.867,8.346,-4.108,56.22,-22.74,-142.2,-19.7,-2.22
9,jab,683192379.0,8.945,9.993,-5.071,54.82,-42.44,-141.28,-16.7,-3.15
9,jab,683197379.0,10.707,11.569,-5.784,46.28,-66.83,-144.27,-13.81,-4.21
9,jab,683202379.0,12.737,12.967,-6.139,35.79,-95.12,-159.33,-11.05,-5.43
9,jab,683207379.0,14.911,13.757,-6.306,23.6,-121.34,-176.46,-8.42,-6.8
9,jab,683212379.0,16.879,13.8,-6.364,5.55,-148.6,-197.87,-5.93,-8.35
9,jab,683217379.0,18.737,13.815,-6.158,-18.17,-178.72,-217.56,-3.62,-10.09
9,jab,683222379.0,20.509,12.459,-5.679,-54.39,-204.02,-227.74,-1.53,-12.01
9,jab,683227379.0,22.223,10.87,-4.98,-89.39,-227.99,-236.1,0.36,-14.12
9,jab,683232379.0,23.669,8.954,-4.262,-126.16,-249.02,-238.54,2.04,-16.4
9,jab,683237379.0,24.737,6.819,-3.558,-157.8,-270.37,-234.33,3.58,-18.85
9,jab,683242379.0,25.508,4.415,-2.787,-183.17,-278.11,-222.2,5.05,-21.41
9,jab,683247379.0,25.541,2.16,-2.011,-197.87,-283.6,-207.26,6.64,-24.04
9,jab,683252379.0,24.981,0.268,-1.504,-208.17,-280.49,-189.33,8.89,-26.66
9,jab,683257379.0,23.985,-1.642,-0.718,-212.99,-265.55,-167.93,5.39,-29.14
9,jab,683262379.0,22.96,-3.357,-0.192,-211.83,-235.0,-144.7,2.38,-31.35
9,jab,683267379.0,21.811,-5.061,-0.043,-213.05,-190.37,-116.95,-0.52,-33.19
9,jab,683272379.0,21.639,-6.211,-1.829,-224.45,-122.99,-83.17,-3.74,-34.6
9,jab,683277379.0,20.303,-8.432,1.274,-228.96,-32.01,-39.82,-6.41,-35.41
9,jab,683282379.0,15.888,-10.18,1.623,-229.82,-32.01,-2.8,-9.03,-36.0
9,jab,683287379.0,17.257,-10.439,-0.488,-241.89,-10.24,18.17,-11.89,-36.5
9,jab,683292379.0,16.664,-12.33,-1.69,-216.65,2.38,45.49,-14.67,-36.82
9,jab,683297379.0,14.868,-12.163,-1.12,-210.55,20.98,58.96,-17.31,-37.0
9,jab,683302379.0,15.036,-11.847,-2.227,-192.07,27.32,74.57,-19.92,-37.15
9,jab,683307379.0,13.719,-11.799,-1.681,-171.22,40.18,94.88,-22.32,-37.19
9,jab,683312379.0,12.55,-11.037,-1.58,-140.18,36.1,107.44,-24.52,-37.24
9,jab,683317379.0,12.028,-10.118,-1.666,-105.85,34.02,119.39,-26.54,-37.32
9,jab,683322379.0,11.497,-8.978,-1.451,-73.6,36.1,128.96,-28.35,-37.43
9,jab,683327379.0,10.539,-7.432,-0.886,-43.72,34.33,134.7,-29.94,-37.6
9,jab,683332379.0,9.941,-6.167,-0.819,-12.13,33.29,139.88,-31.35,-37.85
9,jab,683337379.0,9.831,-5.176,-0.776,15.3,33.35,141.46,-32.62,-38.16
9,jab,683342379.0,9.993,-4.223,-0.704,34.51,35.18,137.56,-33.78,-38.57
9,jab,683347379.0,10.171,-3.318,-0.972,50.98,34.45,132.26,-34.99,-39.05
9,jab,683352379.0,10.271,-2.528,-0.785,61.22,39.63,127.99,-36.13,-39.59
9,jab,683357379.0,10.257,-1.786,-0.445,69.51,44.02,126.34,-37.15,-40.17
9,jab,683362379.0,10.276,-1.13,-0.148,73.29,50.06,127.5,-37.99,-40.8
9,jab,683367379.0,9.926,-0.871,0.311,74.51,53.29,132.8,-38.28,-41.42
9,jab,683372379.0,9.984,-0.709,0.771,73.72,53.6,137.07,-38.0,-42.0
9,jab,683377379.0,9.936,-0.675,1.101,73.11,45.98,139.82,-37.51,-42.59
9,jab,683382379.0,9.778,-0.699,1.302,71.22,35.12,140.98,-36.98,-43.2
9,jab,683387379.0,9.874,-0.373,1.403,68.05,25.43,138.17,-36.2,-43.84
9,jab,683392379.0,9.687,-0.124,1.523,63.72,18.96,141.1,-35.26,-44.49
9,jab,683397379.0,9.697,0.081,1.853,58.66,19.15,140.79,-34.22,-45.09
9,jab,683402379.0,9.725,0.168,1.997,54.09,20.79,141.52,-33.17,-45.65
9,jab,683407379.0,9.462,-0.086,2.246,49.45,24.94,142.68,-32.31,-46.15
9,jab,683412379.0,9.495,-0.172,2.538,45.06,29.82,139.57,-31.52,-46.58
9,jab,683417379.0,9.658,-0.426,2.614,46.22,31.52,135.18,-30.85,-46.99
9,jab,683422379.0,9.438,-0.503,2.614,45.61,29.51,127.56,-30.23,-47.39
9,jab,683427379.0,9.558,-0.603,2.586,48.05,27.56,119.39,-29.65,-47.8
9,jab,683432379.0,9.495,-0.608,2.298,49.27,24.51,112.8,-29.11,-48.24
9,jab,683437379.0,9.586,-0.599,2.203,49.45,24.27,107.56,-28.59,-48.69
9,jab,683442379.0,9.491,-0.723,2.136,48.84,24.57,107.13,-28.15,-49.13
9,jab,683447379.0,9.28,-0.814,2.212,44.94,23.72,107.44,-27.78,-49.54
9,jab,683452379.0,8.921,-0.982,2.605,41.16,19.39,106.1,-27.43,-49.91
9,jab,683457379.0,8.322,-1.374,2.911,34.45,13.84,104.63,-27.22,-50.22
9,jab,683462379.0,7.724,-2.03,3.385,28.11,10.49,99.63,-27.16,-50.42
9,jab,683467379.0,7.25,-2.557,3.836,24.15,11.16,93.84,-27.17,-50.51
9,jab,683472379.0,7.029,-2.978,4.319,22.07,10.91,87.99,-27.21,-50.51
9,jab,683477379.0,7.149,-3.424,4.678,21.89,10.0,83.23,-27.28,-50.47
9,jab,683482379.0,7.369,-3.61,5.023,22.2,11.1,79.15,-27.34,-50.41
9,jab,683487379.0,7.628,-3.759,5.267,23.6,10.18,76.16,-27.39,-50.34
9,jab,683492379.0,7.819,-3.735,5.43,24.39,13.17,74.88,-27.41,-50.27
9,jab,683497379.0,7.896,-3.759,5.813,24.21,18.41,76.1,-27.4,-50.15
9,jab,683502379.0,7.958,-3.816,6.014,22.93,24.33,77.13,-27.39,-49.99
9,jab,683507379.0,8.04,-3.97,6.22,19.15,28.96,79.63,-27.4,-49.8
